%time,field.header.seq,field.header.stamp,field.header.frame_id,field.orientation.x,field.orientation.y,field.orientation.z,field.orientation.w,field.orientation_covariance0,field.orientation_covariance1,field.orientation_covariance2,field.orientation_covariance3,field.orientation_covariance4,field.orientation_covariance5,field.orientation_covariance6,field.orientation_covariance7,field.orientation_covariance8,field.angular_velocity.x,field.angular_velocity.y,field.angular_velocity.z,field.angular_velocity_covariance0,field.angular_velocity_covariance1,field.angular_velocity_covariance2,field.angular_velocity_covariance3,field.angular_velocity_covariance4,field.angular_velocity_covariance5,field.angular_velocity_covariance6,field.angular_velocity_covariance7,field.angular_velocity_covariance8,field.linear_acceleration.x,field.linear_acceleration.y,field.linear_acceleration.z,field.linear_acceleration_covariance0,field.linear_acceleration_covariance1,field.linear_acceleration_covariance2,field.linear_acceleration_covariance3,field.linear_acceleration_covariance4,field.linear_acceleration_covariance5,field.linear_acceleration_covariance6,field.linear_acceleration_covariance7,field.linear_acceleration_covariance8
1494449908820462445,0,1494449908871955542,gyro_link,0.0,0.0,0.0,1.0,1.79769313486e+308,0.0,0.0,0.0,1.79769313486e+308,0.0,0.0,0.0,0.05,0.0,0.0,0.0,1.79769313486e+308,0.0,0.0,0.0,1.79769313486e+308,0.0,0.0,0.0,0.05,0.0,0.0,0.0,0.0,0.0,0.0,0.0,0.0,0.0,0.0,0.0,0.0
1494449908836929532,1,1494449908890499923,gyro_link,0.0,0.0,0.0,1.0,1.79769313486e+308,0.0,0.0,0.0,1.79769313486e+308,0.0,0.0,0.0,0.05,0.0,0.0,0.0,1.79769313486e+308,0.0,0.0,0.0,1.79769313486e+308,0.0,0.0,0.0,0.05,0.0,0.0,0.0,0.0,0.0,0.0,0.0,0.0,0.0,0.0,0.0,0.0
1494449908860387876,2,1494449908909976341,gyro_link,0.0,0.0,0.0,1.0,1.79769313486e+308,0.0,0.0,0.0,1.79769313486e+308,0.0,0.0,0.0,0.05,0.0,0.0,0.0,1.79769313486e+308,0.0,0.0,0.0,1.79769313486e+308,0.0,0.0,0.0,0.05,0.0,0.0,0.0,0.0,0.0,0.0,0.0,0.0,0.0,0.0,0.0,0.0
1494449908877651768,3,1494449908930014466,gyro_link,0.0,0.0,0.0,1.0,1.79769313486e+308,0.0,0.0,0.0,1.79769313486e+308,0.0,0.0,0.0,0.05,0.0,0.0,0.0,1.79769313486e+308,0.0,0.0,0.0,1.79769313486e+308,0.0,0.0,0.0,0.05,0.0,0.0,0.0,0.0,0.0,0.0,0.0,0.0,0.0,0.0,0.0,0.0
1494449908897478204,4,1494449908949992215,gyro_link,0.0,0.0,0.0,1.0,1.79769313486e+308,0.0,0.0,0.0,1.79769313486e+308,0.0,0.0,0.0,0.05,0.0,0.0,0.0,1.79769313486e+308,0.0,0.0,0.0,1.79769313486e+308,0.0,0.0,0.0,0.05,0.0,0.0,0.0,0.0,0.0,0.0,0.0,0.0,0.0,0.0,0.0,0.0
1494449908917586527,5,1494449908971031502,gyro_link,0.0,0.0,0.0,1.0,1.79769313486e+308,0.0,0.0,0.0,1.79769313486e+308,0.0,0.0,0.0,0.05,0.0,0.0,0.0,1.79769313486e+308,0.0,0.0,0.0,1.79769313486e+308,0.0,0.0,0.0,0.05,0.0,0.0,0.0,0.0,0.0,0.0,0.0,0.0,0.0,0.0,0.0,0.0
1494449908939472337,6,1494449908991420500,gyro_link,0.0,0.0,0.0,1.0,1.79769313486e+308,0.0,0.0,0.0,1.79769313486e+308,0.0,0.0,0.0,0.05,0.0,0.0,0.0,1.79769313486e+308,0.0,0.0,0.0,1.79769313486e+308,0.0,0.0,0.0,0.05,0.0,0.0,0.0,0.0,0.0,0.0,0.0,0.0,0.0,0.0,0.0,0.0
1494449908962907906,7,1494449909011986373,gyro_link,0.0,0.0,0.0,1.0,1.79769313486e+308,0.0,0.0,0.0,1.79769313486e+308,0.0,0.0,0.0,0.05,0.0,0.0,0.0,1.79769313486e+308,0.0,0.0,0.0,1.79769313486e+308,0.0,0.0,0.0,0.05,0.0,0.0,0.0,0.0,0.0,0.0,0.0,0.0,0.0,0.0,0.0,0.0
1494449908978390360,8,1494449909031151792,gyro_link,0.0,0.0,0.0,1.0,1.79769313486e+308,0.0,0.0,0.0,1.79769313486e+308,0.0,0.0,0.0,0.05,0.0,0.0,0.0,1.79769313486e+308,0.0,0.0,0.0,1.79769313486e+308,0.0,0.0,0.0,0.05,0.0,0.0,0.0,0.0,0.0,0.0,0.0,0.0,0.0,0.0,0.0,0.0
1494449908997950750,9,1494449909051091334,gyro_link,0.0,0.0,0.0,1.0,1.79769313486e+308,0.0,0.0,0.0,1.79769313486e+308,0.0,0.0,0.0,0.05,0.0,0.0,0.0,1.79769313486e+308,0.0,0.0,0.0,1.79769313486e+308,0.0,0.0,0.0,0.05,0.0,0.0,0.0,0.0,0.0,0.0,0.0,0.0,0.0,0.0,0.0,0.0
1494449909018369081,10,1494449909070370294,gyro_link,0.0,0.0,0.0,1.0,1.79769313486e+308,0.0,0.0,0.0,1.79769313486e+308,0.0,0.0,0.0,0.05,0.0,0.0,0.0,1.79769313486e+308,0.0,0.0,0.0,1.79769313486e+308,0.0,0.0,0.0,0.05,0.0,0.0,0.0,0.0,0.0,0.0,0.0,0.0,0.0,0.0,0.0,0.0
1494449909037881756,11,1494449909090456502,gyro_link,0.0,0.0,0.0,1.0,1.79769313486e+308,0.0,0.0,0.0,1.79769313486e+308,0.0,0.0,0.0,0.05,0.0,0.0,0.0,1.79769313486e+308,0.0,0.0,0.0,1.79769313486e+308,0.0,0.0,0.0,0.05,0.0,0.0,0.0,0.0,0.0,0.0,0.0,0.0,0.0,0.0,0.0,0.0
1494449909060236941,12,1494449909110024920,gyro_link,0.0,0.0,0.0,1.0,1.79769313486e+308,0.0,0.0,0.0,1.79769313486e+308,0.0,0.0,0.0,0.05,0.0,0.0,0.0,1.79769313486e+308,0.0,0.0,0.0,1.79769313486e+308,0.0,0.0,0.0,0.05,0.0,0.0,0.0,0.0,0.0,0.0,0.0,0.0,0.0,0.0,0.0,0.0
1494449909081572799,13,1494449909130758333,gyro_link,0.0,0.0,0.0,1.0,1.79769313486e+308,0.0,0.0,0.0,1.79769313486e+308,0.0,0.0,0.0,0.05,0.0,0.0,0.0,1.79769313486e+308,0.0,0.0,0.0,1.79769313486e+308,0.0,0.0,0.0,0.05,0.0,0.0,0.0,0.0,0.0,0.0,0.0,0.0,0.0,0.0,0.0,0.0
1494449909098746893,14,1494449909151135956,gyro_link,0.0,0.0,0.0,1.0,1.79769313486e+308,0.0,0.0,0.0,1.79769313486e+308,0.0,0.0,0.0,0.05,0.0,0.0,0.0,1.79769313486e+308,0.0,0.0,0.0,1.79769313486e+308,0.0,0.0,0.0,0.05,0.0,0.0,0.0,0.0,0.0,0.0,0.0,0.0,0.0,0.0,0.0,0.0
1494449909118361867,15,1494449909171064205,gyro_link,0.0,0.0,0.0,1.0,1.79769313486e+308,0.0,0.0,0.0,1.79769313486e+308,0.0,0.0,0.0,0.05,0.0,0.0,0.0,1.79769313486e+308,0.0,0.0,0.0,1.79769313486e+308,0.0,0.0,0.0,0.05,0.0,0.0,0.0,0.0,0.0,0.0,0.0,0.0,0.0,0.0,0.0,0.0
1494449909139424651,16,1494449909190978247,gyro_link,0.0,0.0,0.0,1.0,1.79769313486e+308,0.0,0.0,0.0,1.79769313486e+308,0.0,0.0,0.0,0.05,0.0,0.0,0.0,1.79769313486e+308,0.0,0.0,0.0,1.79769313486e+308,0.0,0.0,0.0,0.05,0.0,0.0,0.0,0.0,0.0,0.0,0.0,0.0,0.0,0.0,0.0,0.0
1494449909158532754,17,1494449909210907913,gyro_link,0.0,0.0,0.0,1.0,1.79769313486e+308,0.0,0.0,0.0,1.79769313486e+308,0.0,0.0,0.0,0.05,0.0,0.0,0.0,1.79769313486e+308,0.0,0.0,0.0,1.79769313486e+308,0.0,0.0,0.0,0.05,0.0,0.0,0.0,0.0,0.0,0.0,0.0,0.0,0.0,0.0,0.0,0.0
1494449909193643435,18,1494449909230891954,gyro_link,0.0,0.0,0.0,1.0,1.79769313486e+308,0.0,0.0,0.0,1.79769313486e+308,0.0,0.0,0.0,0.05,0.0,0.0,0.0,1.79769313486e+308,0.0,0.0,0.0,1.79769313486e+308,0.0,0.0,0.0,0.05,0.0,0.0,0.0,0.0,0.0,0.0,0.0,0.0,0.0,0.0,0.0,0.0
1494449909196995532,19,1494449909251090245,gyro_link,0.0,0.0,0.0,1.0,1.79769313486e+308,0.0,0.0,0.0,1.79769313486e+308,0.0,0.0,0.0,0.05,0.0,0.0,0.0,1.79769313486e+308,0.0,0.0,0.0,1.79769313486e+308,0.0,0.0,0.0,0.05,0.0,0.0,0.0,0.0,0.0,0.0,0.0,0.0,0.0,0.0,0.0,0.0
1494449909218106430,20,1494449909271128077,gyro_link,0.0,0.0,0.0,1.0,1.79769313486e+308,0.0,0.0,0.0,1.79769313486e+308,0.0,0.0,0.0,0.05,0.0,0.0,0.0,1.79769313486e+308,0.0,0.0,0.0,1.79769313486e+308,0.0,0.0,0.0,0.05,0.0,0.0,0.0,0.0,0.0,0.0,0.0,0.0,0.0,0.0,0.0,0.0
1494449909243127159,21,1494449909290968161,gyro_link,0.0,0.0,0.0,1.0,1.79769313486e+308,0.0,0.0,0.0,1.79769313486e+308,0.0,0.0,0.0,0.05,0.0,0.0,0.0,1.79769313486e+308,0.0,0.0,0.0,1.79769313486e+308,0.0,0.0,0.0,0.05,0.0,0.0,0.0,0.0,0.0,0.0,0.0,0.0,0.0,0.0,0.0,0.0
1494449909257802903,22,1494449909310978285,gyro_link,0.0,0.0,0.0,1.0,1.79769313486e+308,0.0,0.0,0.0,1.79769313486e+308,0.0,0.0,0.0,0.05,0.0,0.0,0.0,1.79769313486e+308,0.0,0.0,0.0,1.79769313486e+308,0.0,0.0,0.0,0.05,0.0,0.0,0.0,0.0,0.0,0.0,0.0,0.0,0.0,0.0,0.0,0.0
1494449909278181148,23,1494449909331000993,gyro_link,0.0,0.0,0.0,1.0,1.79769313486e+308,0.0,0.0,0.0,1.79769313486e+308,0.0,0.0,0.0,0.05,0.0,0.0,0.0,1.79769313486e+308,0.0,0.0,0.0,1.79769313486e+308,0.0,0.0,0.0,0.05,0.0,0.0,0.0,0.0,0.0,0.0,0.0,0.0,0.0,0.0,0.0,0.0
1494449909301714443,24,1494449909352446986,gyro_link,0.0,0.0,0.0,1.0,1.79769313486e+308,0.0,0.0,0.0,1.79769313486e+308,0.0,0.0,0.0,0.05,0.0,0.0,0.0,1.79769313486e+308,0.0,0.0,0.0,1.79769313486e+308,0.0,0.0,0.0,0.05,0.0,0.0,0.0,0.0,0.0,0.0,0.0,0.0,0.0,0.0,0.0,0.0
1494449909319200448,25,1494449909371304532,gyro_link,0.0,0.0,0.0,1.0,1.79769313486e+308,0.0,0.0,0.0,1.79769313486e+308,0.0,0.0,0.0,0.05,0.0,0.0,0.0,1.79769313486e+308,0.0,0.0,0.0,1.79769313486e+308,0.0,0.0,0.0,0.05,0.0,0.0,0.0,0.0,0.0,0.0,0.0,0.0,0.0,0.0,0.0,0.0
1494449909343853194,26,1494449909394278853,gyro_link,0.0,0.0,0.0,1.0,1.79769313486e+308,0.0,0.0,0.0,1.79769313486e+308,0.0,0.0,0.0,0.05,0.0,0.0,0.0,1.79769313486e+308,0.0,0.0,0.0,1.79769313486e+308,0.0,0.0,0.0,0.05,0.0,0.0,0.0,0.0,0.0,0.0,0.0,0.0,0.0,0.0,0.0,0.0
1494449909360553086,27,1494449909412814233,gyro_link,0.0,0.0,0.0,1.0,1.79769313486e+308,0.0,0.0,0.0,1.79769313486e+308,0.0,0.0,0.0,0.05,0.0,0.0,0.0,1.79769313486e+308,0.0,0.0,0.0,1.79769313486e+308,0.0,0.0,0.0,0.05,0.0,0.0,0.0,0.0,0.0,0.0,0.0,0.0,0.0,0.0,0.0,0.0
1494449909379431167,28,1494449909430905199,gyro_link,0.0,0.0,0.0,1.0,1.79769313486e+308,0.0,0.0,0.0,1.79769313486e+308,0.0,0.0,0.0,0.05,0.0,0.0,0.0,1.79769313486e+308,0.0,0.0,0.0,1.79769313486e+308,0.0,0.0,0.0,0.05,0.0,0.0,0.0,0.0,0.0,0.0,0.0,0.0,0.0,0.0,0.0,0.0
1494449909398138022,29,1494449909450965990,gyro_link,0.0,0.0,0.0,1.0,1.79769313486e+308,0.0,0.0,0.0,1.79769313486e+308,0.0,0.0,0.0,0.05,0.0,0.0,0.0,1.79769313486e+308,0.0,0.0,0.0,1.79769313486e+308,0.0,0.0,0.0,0.05,0.0,0.0,0.0,0.0,0.0,0.0,0.0,0.0,0.0,0.0,0.0,0.0
1494449909418266500,30,1494449909470843240,gyro_link,0.0,0.0,0.0,1.0,1.79769313486e+308,0.0,0.0,0.0,1.79769313486e+308,0.0,0.0,0.0,0.05,0.0,0.0,0.0,1.79769313486e+308,0.0,0.0,0.0,1.79769313486e+308,0.0,0.0,0.0,0.05,0.0,0.0,0.0,0.0,0.0,0.0,0.0,0.0,0.0,0.0,0.0,0.0
1494449909439040265,31,1494449909491008322,gyro_link,0.0,0.0,0.0,1.0,1.79769313486e+308,0.0,0.0,0.0,1.79769313486e+308,0.0,0.0,0.0,0.05,0.0,0.0,0.0,1.79769313486e+308,0.0,0.0,0.0,1.79769313486e+308,0.0,0.0,0.0,0.05,0.0,0.0,0.0,0.0,0.0,0.0,0.0,0.0,0.0,0.0,0.0,0.0
1494449909486600534,32,1494449909513791393,gyro_link,0.0,0.0,0.0,1.0,1.79769313486e+308,0.0,0.0,0.0,1.79769313486e+308,0.0,0.0,0.0,0.05,0.0,0.0,0.0,1.79769313486e+308,0.0,0.0,0.0,1.79769313486e+308,0.0,0.0,0.0,0.05,0.0,0.0,0.0,0.0,0.0,0.0,0.0,0.0,0.0,0.0,0.0,0.0
1494449909490469719,33,1494449909531731776,gyro_link,0.0,0.0,0.0,1.0,1.79769313486e+308,0.0,0.0,0.0,1.79769313486e+308,0.0,0.0,0.0,0.05,0.0,0.0,0.0,1.79769313486e+308,0.0,0.0,0.0,1.79769313486e+308,0.0,0.0,0.0,0.05,0.0,0.0,0.0,0.0,0.0,0.0,0.0,0.0,0.0,0.0,0.0,0.0
1494449909497916623,34,1494449909551164903,gyro_link,0.0,0.0,0.0,1.0,1.79769313486e+308,0.0,0.0,0.0,1.79769313486e+308,0.0,0.0,0.0,0.05,0.0,0.0,0.0,1.79769313486e+308,0.0,0.0,0.0,1.79769313486e+308,0.0,0.0,0.0,0.05,0.0,0.0,0.0,0.0,0.0,0.0,0.0,0.0,0.0,0.0,0.0,0.0
1494449909516972836,35,1494449909570858070,gyro_link,0.0,0.0,0.0,1.0,1.79769313486e+308,0.0,0.0,0.0,1.79769313486e+308,0.0,0.0,0.0,0.05,0.0,0.0,0.0,1.79769313486e+308,0.0,0.0,0.0,1.79769313486e+308,0.0,0.0,0.0,0.05,0.0,0.0,0.0,0.0,0.0,0.0,0.0,0.0,0.0,0.0,0.0,0.0
1494449909538884995,36,1494449909590900195,gyro_link,0.0,0.0,0.0,1.0,1.79769313486e+308,0.0,0.0,0.0,1.79769313486e+308,0.0,0.0,0.0,0.05,0.0,0.0,0.0,1.79769313486e+308,0.0,0.0,0.0,1.79769313486e+308,0.0,0.0,0.0,0.05,0.0,0.0,0.0,0.0,0.0,0.0,0.0,0.0,0.0,0.0,0.0,0.0
1494449909560969953,37,1494449909612798894,gyro_link,0.0,0.0,0.0,1.0,1.79769313486e+308,0.0,0.0,0.0,1.79769313486e+308,0.0,0.0,0.0,0.05,0.0,0.0,0.0,1.79769313486e+308,0.0,0.0,0.0,1.79769313486e+308,0.0,0.0,0.0,0.05,0.0,0.0,0.0,0.0,0.0,0.0,0.0,0.0,0.0,0.0,0.0,0.0
1494449909584825621,38,1494449909630972985,gyro_link,0.0,0.0,0.0,1.0,1.79769313486e+308,0.0,0.0,0.0,1.79769313486e+308,0.0,0.0,0.0,0.05,0.0,0.0,0.0,1.79769313486e+308,0.0,0.0,0.0,1.79769313486e+308,0.0,0.0,0.0,0.05,0.0,0.0,0.0,0.0,0.0,0.0,0.0,0.0,0.0,0.0,0.0,0.0
1494449909597686100,39,1494449909651062567,gyro_link,0.0,0.0,0.0,1.0,1.79769313486e+308,0.0,0.0,0.0,1.79769313486e+308,0.0,0.0,0.0,0.05,0.0,0.0,0.0,1.79769313486e+308,0.0,0.0,0.0,1.79769313486e+308,0.0,0.0,0.0,0.05,0.0,0.0,0.0,0.0,0.0,0.0,0.0,0.0,0.0,0.0,0.0,0.0
1494449909617464309,40,1494449909670872484,gyro_link,0.0,0.0,0.0,1.0,1.79769313486e+308,0.0,0.0,0.0,1.79769313486e+308,0.0,0.0,0.0,0.05,0.0,0.0,0.0,1.79769313486e+308,0.0,0.0,0.0,1.79769313486e+308,0.0,0.0,0.0,0.05,0.0,0.0,0.0,0.0,0.0,0.0,0.0,0.0,0.0,0.0,0.0,0.0
1494449909638164992,41,1494449909690915233,gyro_link,0.0,0.0,0.0,1.0,1.79769313486e+308,0.0,0.0,0.0,1.79769313486e+308,0.0,0.0,0.0,0.05,0.0,0.0,0.0,1.79769313486e+308,0.0,0.0,0.0,1.79769313486e+308,0.0,0.0,0.0,0.05,0.0,0.0,0.0,0.0,0.0,0.0,0.0,0.0,0.0,0.0,0.0,0.0
1494449909658938214,42,1494449909711254231,gyro_link,0.0,0.0,0.0,1.0,1.79769313486e+308,0.0,0.0,0.0,1.79769313486e+308,0.0,0.0,0.0,0.05,0.0,0.0,0.0,1.79769313486e+308,0.0,0.0,0.0,1.79769313486e+308,0.0,0.0,0.0,0.05,0.0,0.0,0.0,0.0,0.0,0.0,0.0,0.0,0.0,0.0,0.0,0.0
1494449909679709534,43,1494449909731984645,gyro_link,0.0,0.0,0.0,1.0,1.79769313486e+308,0.0,0.0,0.0,1.79769313486e+308,0.0,0.0,0.0,0.05,0.0,0.0,0.0,1.79769313486e+308,0.0,0.0,0.0,1.79769313486e+308,0.0,0.0,0.0,0.05,0.0,0.0,0.0,0.0,0.0,0.0,0.0,0.0,0.0,0.0,0.0,0.0
1494449909699626348,44,1494449909752036019,gyro_link,0.0,0.0,0.0,1.0,1.79769313486e+308,0.0,0.0,0.0,1.79769313486e+308,0.0,0.0,0.0,0.05,0.0,0.0,0.0,1.79769313486e+308,0.0,0.0,0.0,1.79769313486e+308,0.0,0.0,0.0,0.05,0.0,0.0,0.0,0.0,0.0,0.0,0.0,0.0,0.0,0.0,0.0,0.0
1494449909729635154,45,1494449909772283351,gyro_link,0.0,0.0,0.0,1.0,1.79769313486e+308,0.0,0.0,0.0,1.79769313486e+308,0.0,0.0,0.0,0.05,0.0,0.0,0.0,1.79769313486e+308,0.0,0.0,0.0,1.79769313486e+308,0.0,0.0,0.0,0.05,0.0,0.0,0.0,0.0,0.0,0.0,0.0,0.0,0.0,0.0,0.0,0.0
1494449909743826348,46,1494449909793848302,gyro_link,0.0,0.0,0.0,1.0,1.79769313486e+308,0.0,0.0,0.0,1.79769313486e+308,0.0,0.0,0.0,0.05,0.0,0.0,0.0,1.79769313486e+308,0.0,0.0,0.0,1.79769313486e+308,0.0,0.0,0.0,0.05,0.0,0.0,0.0,0.0,0.0,0.0,0.0,0.0,0.0,0.0,0.0,0.0
1494449909760389296,47,1494449909813103179,gyro_link,0.0,0.0,0.0,1.0,1.79769313486e+308,0.0,0.0,0.0,1.79769313486e+308,0.0,0.0,0.0,0.05,0.0,0.0,0.0,1.79769313486e+308,0.0,0.0,0.0,1.79769313486e+308,0.0,0.0,0.0,0.05,0.0,0.0,0.0,0.0,0.0,0.0,0.0,0.0,0.0,0.0,0.0,0.0
1494449909777261218,48,1494449909830992896,gyro_link,0.0,0.0,0.0,1.0,1.79769313486e+308,0.0,0.0,0.0,1.79769313486e+308,0.0,0.0,0.0,0.05,0.0,0.0,0.0,1.79769313486e+308,0.0,0.0,0.0,1.79769313486e+308,0.0,0.0,0.0,0.05,0.0,0.0,0.0,0.0,0.0,0.0,0.0,0.0,0.0,0.0,0.0,0.0
1494449909797652686,49,1494449909851129645,gyro_link,0.0,0.0,0.0,1.0,1.79769313486e+308,0.0,0.0,0.0,1.79769313486e+308,0.0,0.0,0.0,0.05,0.0,0.0,0.0,1.79769313486e+308,0.0,0.0,0.0,1.79769313486e+308,0.0,0.0,0.0,0.05,0.0,0.0,0.0,0.0,0.0,0.0,0.0,0.0,0.0,0.0,0.0,0.0
1494449909819647275,50,1494449909870939395,gyro_link,0.0,0.0,0.0,1.0,1.79769313486e+308,0.0,0.0,0.0,1.79769313486e+308,0.0,0.0,0.0,0.05,0.0,0.0,0.0,1.79769313486e+308,0.0,0.0,0.0,1.79769313486e+308,0.0,0.0,0.0,0.05,0.0,0.0,0.0,0.0,0.0,0.0,0.0,0.0,0.0,0.0,0.0,0.0
1494449909839553077,51,1494449909891130769,gyro_link,0.0,0.0,0.0,1.0,1.79769313486e+308,0.0,0.0,0.0,1.79769313486e+308,0.0,0.0,0.0,0.05,0.0,0.0,0.0,1.79769313486e+308,0.0,0.0,0.0,1.79769313486e+308,0.0,0.0,0.0,0.05,0.0,0.0,0.0,0.0,0.0,0.0,0.0,0.0,0.0,0.0,0.0,0.0
1494449909862127385,52,1494449909913206093,gyro_link,0.0,0.0,0.0,1.0,1.79769313486e+308,0.0,0.0,0.0,1.79769313486e+308,0.0,0.0,0.0,0.05,0.0,0.0,0.0,1.79769313486e+308,0.0,0.0,0.0,1.79769313486e+308,0.0,0.0,0.0,0.05,0.0,0.0,0.0,0.0,0.0,0.0,0.0,0.0,0.0,0.0,0.0,0.0
1494449909879876419,53,1494449909931947306,gyro_link,0.0,0.0,0.0,1.0,1.79769313486e+308,0.0,0.0,0.0,1.79769313486e+308,0.0,0.0,0.0,0.05,0.0,0.0,0.0,1.79769313486e+308,0.0,0.0,0.0,1.79769313486e+308,0.0,0.0,0.0,0.05,0.0,0.0,0.0,0.0,0.0,0.0,0.0,0.0,0.0,0.0,0.0,0.0
1494449909900529776,54,1494449909953499840,gyro_link,0.0,0.0,0.0,1.0,1.79769313486e+308,0.0,0.0,0.0,1.79769313486e+308,0.0,0.0,0.0,0.05,0.0,0.0,0.0,1.79769313486e+308,0.0,0.0,0.0,1.79769313486e+308,0.0,0.0,0.0,0.05,0.0,0.0,0.0,0.0,0.0,0.0,0.0,0.0,0.0,0.0,0.0,0.0
1494449909920700654,55,1494449909972207220,gyro_link,0.0,0.0,0.0,1.0,1.79769313486e+308,0.0,0.0,0.0,1.79769313486e+308,0.0,0.0,0.0,0.05,0.0,0.0,0.0,1.79769313486e+308,0.0,0.0,0.0,1.79769313486e+308,0.0,0.0,0.0,0.05,0.0,0.0,0.0,0.0,0.0,0.0,0.0,0.0,0.0,0.0,0.0,0.0
1494449909939655510,56,1494449909991949263,gyro_link,0.0,0.0,0.0,1.0,1.79769313486e+308,0.0,0.0,0.0,1.79769313486e+308,0.0,0.0,0.0,0.05,0.0,0.0,0.0,1.79769313486e+308,0.0,0.0,0.0,1.79769313486e+308,0.0,0.0,0.0,0.05,0.0,0.0,0.0,0.0,0.0,0.0,0.0,0.0,0.0,0.0,0.0,0.0
1494449909958247009,57,1494449910012312594,gyro_link,0.0,0.0,0.0,1.0,1.79769313486e+308,0.0,0.0,0.0,1.79769313486e+308,0.0,0.0,0.0,0.05,0.0,0.0,0.0,1.79769313486e+308,0.0,0.0,0.0,1.79769313486e+308,0.0,0.0,0.0,0.05,0.0,0.0,0.0,0.0,0.0,0.0,0.0,0.0,0.0,0.0,0.0,0.0
1494449909978344188,58,1494449910032065594,gyro_link,0.0,0.0,0.0,1.0,1.79769313486e+308,0.0,0.0,0.0,1.79769313486e+308,0.0,0.0,0.0,0.05,0.0,0.0,0.0,1.79769313486e+308,0.0,0.0,0.0,1.79769313486e+308,0.0,0.0,0.0,0.05,0.0,0.0,0.0,0.0,0.0,0.0,0.0,0.0,0.0,0.0,0.0,0.0
1494449909997836522,59,1494449910051803469,gyro_link,0.0,0.0,0.0,1.0,1.79769313486e+308,0.0,0.0,0.0,1.79769313486e+308,0.0,0.0,0.0,0.05,0.0,0.0,0.0,1.79769313486e+308,0.0,0.0,0.0,1.79769313486e+308,0.0,0.0,0.0,0.05,0.0,0.0,0.0,0.0,0.0,0.0,0.0,0.0,0.0,0.0,0.0,0.0
1494449910019126029,60,1494449910072003509,gyro_link,0.0,0.0,0.0,1.0,1.79769313486e+308,0.0,0.0,0.0,1.79769313486e+308,0.0,0.0,0.0,0.05,0.0,0.0,0.0,1.79769313486e+308,0.0,0.0,0.0,1.79769313486e+308,0.0,0.0,0.0,0.05,0.0,0.0,0.0,0.0,0.0,0.0,0.0,0.0,0.0,0.0,0.0,0.0
1494449910046953872,61,1494449910093715293,gyro_link,0.0,0.0,0.0,1.0,1.79769313486e+308,0.0,0.0,0.0,1.79769313486e+308,0.0,0.0,0.0,0.05,0.0,0.0,0.0,1.79769313486e+308,0.0,0.0,0.0,1.79769313486e+308,0.0,0.0,0.0,0.05,0.0,0.0,0.0,0.0,0.0,0.0,0.0,0.0,0.0,0.0,0.0,0.0
1494449910060672337,62,1494449910112806046,gyro_link,0.0,0.0,0.0,1.0,1.79769313486e+308,0.0,0.0,0.0,1.79769313486e+308,0.0,0.0,0.0,0.05,0.0,0.0,0.0,1.79769313486e+308,0.0,0.0,0.0,1.79769313486e+308,0.0,0.0,0.0,0.05,0.0,0.0,0.0,0.0,0.0,0.0,0.0,0.0,0.0,0.0,0.0,0.0
1494449910079069716,63,1494449910131869383,gyro_link,0.0,0.0,0.0,1.0,1.79769313486e+308,0.0,0.0,0.0,1.79769313486e+308,0.0,0.0,0.0,0.05,0.0,0.0,0.0,1.79769313486e+308,0.0,0.0,0.0,1.79769313486e+308,0.0,0.0,0.0,0.05,0.0,0.0,0.0,0.0,0.0,0.0,0.0,0.0,0.0,0.0,0.0,0.0
1494449910098448207,64,1494449910151519675,gyro_link,0.0,0.0,0.0,1.0,1.79769313486e+308,0.0,0.0,0.0,1.79769313486e+308,0.0,0.0,0.0,0.05,0.0,0.0,0.0,1.79769313486e+308,0.0,0.0,0.0,1.79769313486e+308,0.0,0.0,0.0,0.05,0.0,0.0,0.0,0.0,0.0,0.0,0.0,0.0,0.0,0.0,0.0,0.0
1494449910118613976,65,1494449910171920506,gyro_link,0.0,0.0,0.0,1.0,1.79769313486e+308,0.0,0.0,0.0,1.79769313486e+308,0.0,0.0,0.0,0.05,0.0,0.0,0.0,1.79769313486e+308,0.0,0.0,0.0,1.79769313486e+308,0.0,0.0,0.0,0.05,0.0,0.0,0.0,0.0,0.0,0.0,0.0,0.0,0.0,0.0,0.0,0.0
1494449910138759858,66,1494449910191691423,gyro_link,0.0,0.0,0.0,1.0,1.79769313486e+308,0.0,0.0,0.0,1.79769313486e+308,0.0,0.0,0.0,0.05,0.0,0.0,0.0,1.79769313486e+308,0.0,0.0,0.0,1.79769313486e+308,0.0,0.0,0.0,0.05,0.0,0.0,0.0,0.0,0.0,0.0,0.0,0.0,0.0,0.0,0.0,0.0
1494449910160275706,67,1494449910212547793,gyro_link,0.0,0.0,0.0,1.0,1.79769313486e+308,0.0,0.0,0.0,1.79769313486e+308,0.0,0.0,0.0,0.05,0.0,0.0,0.0,1.79769313486e+308,0.0,0.0,0.0,1.79769313486e+308,0.0,0.0,0.0,0.05,0.0,0.0,0.0,0.0,0.0,0.0,0.0,0.0,0.0,0.0,0.0,0.0
1494449910179018259,68,1494449910231806296,gyro_link,0.0,0.0,0.0,1.0,1.79769313486e+308,0.0,0.0,0.0,1.79769313486e+308,0.0,0.0,0.0,0.05,0.0,0.0,0.0,1.79769313486e+308,0.0,0.0,0.0,1.79769313486e+308,0.0,0.0,0.0,0.05,0.0,0.0,0.0,0.0,0.0,0.0,0.0,0.0,0.0,0.0,0.0,0.0
1494449910199344493,69,1494449910251785878,gyro_link,0.0,0.0,0.0,1.0,1.79769313486e+308,0.0,0.0,0.0,1.79769313486e+308,0.0,0.0,0.0,0.05,0.0,0.0,0.0,1.79769313486e+308,0.0,0.0,0.0,1.79769313486e+308,0.0,0.0,0.0,0.05,0.0,0.0,0.0,0.0,0.0,0.0,0.0,0.0,0.0,0.0,0.0,0.0
1494449910219789919,70,1494449910271623878,gyro_link,0.0,0.0,0.0,1.0,1.79769313486e+308,0.0,0.0,0.0,1.79769313486e+308,0.0,0.0,0.0,0.05,0.0,0.0,0.0,1.79769313486e+308,0.0,0.0,0.0,1.79769313486e+308,0.0,0.0,0.0,0.05,0.0,0.0,0.0,0.0,0.0,0.0,0.0,0.0,0.0,0.0,0.0,0.0
1494449910239880598,71,1494449910292725123,gyro_link,0.0,0.0,0.0,1.0,1.79769313486e+308,0.0,0.0,0.0,1.79769313486e+308,0.0,0.0,0.0,0.05,0.0,0.0,0.0,1.79769313486e+308,0.0,0.0,0.0,1.79769313486e+308,0.0,0.0,0.0,0.05,0.0,0.0,0.0,0.0,0.0,0.0,0.0,0.0,0.0,0.0,0.0,0.0
1494449910261579042,72,1494449910313555619,gyro_link,0.0,0.0,0.0,1.0,1.79769313486e+308,0.0,0.0,0.0,1.79769313486e+308,0.0,0.0,0.0,0.05,0.0,0.0,0.0,1.79769313486e+308,0.0,0.0,0.0,1.79769313486e+308,0.0,0.0,0.0,0.05,0.0,0.0,0.0,0.0,0.0,0.0,0.0,0.0,0.0,0.0,0.0,0.0
1494449910278716783,73,1494449910332158832,gyro_link,0.0,0.0,0.0,1.0,1.79769313486e+308,0.0,0.0,0.0,1.79769313486e+308,0.0,0.0,0.0,0.05,0.0,0.0,0.0,1.79769313486e+308,0.0,0.0,0.0,1.79769313486e+308,0.0,0.0,0.0,0.05,0.0,0.0,0.0,0.0,0.0,0.0,0.0,0.0,0.0,0.0,0.0,0.0
1494449910300019584,74,1494449910351883291,gyro_link,0.0,0.0,0.0,1.0,1.79769313486e+308,0.0,0.0,0.0,1.79769313486e+308,0.0,0.0,0.0,0.05,0.0,0.0,0.0,1.79769313486e+308,0.0,0.0,0.0,1.79769313486e+308,0.0,0.0,0.0,0.05,0.0,0.0,0.0,0.0,0.0,0.0,0.0,0.0,0.0,0.0,0.0,0.0
1494449910318227102,75,1494449910371767249,gyro_link,0.0,0.0,0.0,1.0,1.79769313486e+308,0.0,0.0,0.0,1.79769313486e+308,0.0,0.0,0.0,0.05,0.0,0.0,0.0,1.79769313486e+308,0.0,0.0,0.0,1.79769313486e+308,0.0,0.0,0.0,0.05,0.0,0.0,0.0,0.0,0.0,0.0,0.0,0.0,0.0,0.0,0.0,0.0
1494449910339774567,76,1494449910391531541,gyro_link,0.0,0.0,0.0,1.0,1.79769313486e+308,0.0,0.0,0.0,1.79769313486e+308,0.0,0.0,0.0,0.05,0.0,0.0,0.0,1.79769313486e+308,0.0,0.0,0.0,1.79769313486e+308,0.0,0.0,0.0,0.05,0.0,0.0,0.0,0.0,0.0,0.0,0.0,0.0,0.0,0.0,0.0,0.0
1494449910358565762,77,1494449910411708748,gyro_link,0.0,0.0,0.0,1.0,1.79769313486e+308,0.0,0.0,0.0,1.79769313486e+308,0.0,0.0,0.0,0.05,0.0,0.0,0.0,1.79769313486e+308,0.0,0.0,0.0,1.79769313486e+308,0.0,0.0,0.0,0.05,0.0,0.0,0.0,0.0,0.0,0.0,0.0,0.0,0.0,0.0,0.0,0.0
1494449910380416565,78,1494449910432073287,gyro_link,0.0,0.0,0.0,1.0,1.79769313486e+308,0.0,0.0,0.0,1.79769313486e+308,0.0,0.0,0.0,0.05,0.0,0.0,0.0,1.79769313486e+308,0.0,0.0,0.0,1.79769313486e+308,0.0,0.0,0.0,0.05,0.0,0.0,0.0,0.0,0.0,0.0,0.0,0.0,0.0,0.0,0.0,0.0
1494449910404514059,79,1494449910452276202,gyro_link,0.0,0.0,0.0,1.0,1.79769313486e+308,0.0,0.0,0.0,1.79769313486e+308,0.0,0.0,0.0,0.05,0.0,0.0,0.0,1.79769313486e+308,0.0,0.0,0.0,1.79769313486e+308,0.0,0.0,0.0,0.05,0.0,0.0,0.0,0.0,0.0,0.0,0.0,0.0,0.0,0.0,0.0,0.0
1494449910424138959,80,1494449910473675654,gyro_link,0.0,0.0,0.0,1.0,1.79769313486e+308,0.0,0.0,0.0,1.79769313486e+308,0.0,0.0,0.0,0.05,0.0,0.0,0.0,1.79769313486e+308,0.0,0.0,0.0,1.79769313486e+308,0.0,0.0,0.0,0.05,0.0,0.0,0.0,0.0,0.0,0.0,0.0,0.0,0.0,0.0,0.0,0.0
1494449910441780355,81,1494449910493542820,gyro_link,0.0,0.0,0.0,1.0,1.79769313486e+308,0.0,0.0,0.0,1.79769313486e+308,0.0,0.0,0.0,0.05,0.0,0.0,0.0,1.79769313486e+308,0.0,0.0,0.0,1.79769313486e+308,0.0,0.0,0.0,0.05,0.0,0.0,0.0,0.0,0.0,0.0,0.0,0.0,0.0,0.0,0.0,0.0
1494449910462581423,82,1494449910513673902,gyro_link,0.0,0.0,0.0,1.0,1.79769313486e+308,0.0,0.0,0.0,1.79769313486e+308,0.0,0.0,0.0,0.05,0.0,0.0,0.0,1.79769313486e+308,0.0,0.0,0.0,1.79769313486e+308,0.0,0.0,0.0,0.05,0.0,0.0,0.0,0.0,0.0,0.0,0.0,0.0,0.0,0.0,0.0,0.0
1494449910482617780,83,1494449910533482819,gyro_link,0.0,0.0,0.0,1.0,1.79769313486e+308,0.0,0.0,0.0,1.79769313486e+308,0.0,0.0,0.0,0.05,0.0,0.0,0.0,1.79769313486e+308,0.0,0.0,0.0,1.79769313486e+308,0.0,0.0,0.0,0.05,0.0,0.0,0.0,0.0,0.0,0.0,0.0,0.0,0.0,0.0,0.0,0.0
1494449910505846619,84,1494449910553455693,gyro_link,0.0,0.0,0.0,1.0,1.79769313486e+308,0.0,0.0,0.0,1.79769313486e+308,0.0,0.0,0.0,0.05,0.0,0.0,0.0,1.79769313486e+308,0.0,0.0,0.0,1.79769313486e+308,0.0,0.0,0.0,0.05,0.0,0.0,0.0,0.0,0.0,0.0,0.0,0.0,0.0,0.0,0.0,0.0
1494449910525862014,85,1494449910574128481,gyro_link,0.0,0.0,0.0,1.0,1.79769313486e+308,0.0,0.0,0.0,1.79769313486e+308,0.0,0.0,0.0,0.05,0.0,0.0,0.0,1.79769313486e+308,0.0,0.0,0.0,1.79769313486e+308,0.0,0.0,0.0,0.05,0.0,0.0,0.0,0.0,0.0,0.0,0.0,0.0,0.0,0.0,0.0,0.0
1494449910544131144,86,1494449910594694895,gyro_link,0.0,0.0,0.0,1.0,1.79769313486e+308,0.0,0.0,0.0,1.79769313486e+308,0.0,0.0,0.0,0.05,0.0,0.0,0.0,1.79769313486e+308,0.0,0.0,0.0,1.79769313486e+308,0.0,0.0,0.0,0.05,0.0,0.0,0.0,0.0,0.0,0.0,0.0,0.0,0.0,0.0,0.0,0.0
1494449910561554468,87,1494449910612711028,gyro_link,0.0,0.0,0.0,1.0,1.79769313486e+308,0.0,0.0,0.0,1.79769313486e+308,0.0,0.0,0.0,0.05,0.0,0.0,0.0,1.79769313486e+308,0.0,0.0,0.0,1.79769313486e+308,0.0,0.0,0.0,0.05,0.0,0.0,0.0,0.0,0.0,0.0,0.0,0.0,0.0,0.0,0.0,0.0
1494449910579340616,88,1494449910631776239,gyro_link,0.0,0.0,0.0,1.0,1.79769313486e+308,0.0,0.0,0.0,1.79769313486e+308,0.0,0.0,0.0,0.05,0.0,0.0,0.0,1.79769313486e+308,0.0,0.0,0.0,1.79769313486e+308,0.0,0.0,0.0,0.05,0.0,0.0,0.0,0.0,0.0,0.0,0.0,0.0,0.0,0.0,0.0,0.0
1494449910601462398,89,1494449910651783155,gyro_link,0.0,0.0,0.0,1.0,1.79769313486e+308,0.0,0.0,0.0,1.79769313486e+308,0.0,0.0,0.0,0.05,0.0,0.0,0.0,1.79769313486e+308,0.0,0.0,0.0,1.79769313486e+308,0.0,0.0,0.0,0.05,0.0,0.0,0.0,0.0,0.0,0.0,0.0,0.0,0.0,0.0,0.0,0.0
1494449910620251506,90,1494449910672510109,gyro_link,0.0,0.0,0.0,1.0,1.79769313486e+308,0.0,0.0,0.0,1.79769313486e+308,0.0,0.0,0.0,0.05,0.0,0.0,0.0,1.79769313486e+308,0.0,0.0,0.0,1.79769313486e+308,0.0,0.0,0.0,0.05,0.0,0.0,0.0,0.0,0.0,0.0,0.0,0.0,0.0,0.0,0.0,0.0
1494449910639374924,91,1494449910692837941,gyro_link,0.0,0.0,0.0,1.0,1.79769313486e+308,0.0,0.0,0.0,1.79769313486e+308,0.0,0.0,0.0,0.05,0.0,0.0,0.0,1.79769313486e+308,0.0,0.0,0.0,1.79769313486e+308,0.0,0.0,0.0,0.05,0.0,0.0,0.0,0.0,0.0,0.0,0.0,0.0,0.0,0.0,0.0,0.0
1494449910665007245,92,1494449910713323980,gyro_link,0.0,0.0,0.0,1.0,1.79769313486e+308,0.0,0.0,0.0,1.79769313486e+308,0.0,0.0,0.0,0.05,0.0,0.0,0.0,1.79769313486e+308,0.0,0.0,0.0,1.79769313486e+308,0.0,0.0,0.0,0.05,0.0,0.0,0.0,0.0,0.0,0.0,0.0,0.0,0.0,0.0,0.0,0.0
1494449910680728541,93,1494449910733050605,gyro_link,0.0,0.0,0.0,1.0,1.79769313486e+308,0.0,0.0,0.0,1.79769313486e+308,0.0,0.0,0.0,0.05,0.0,0.0,0.0,1.79769313486e+308,0.0,0.0,0.0,1.79769313486e+308,0.0,0.0,0.0,0.05,0.0,0.0,0.0,0.0,0.0,0.0,0.0,0.0,0.0,0.0,0.0,0.0
1494449910709433916,94,1494449910752993229,gyro_link,0.0,0.0,0.0,1.0,1.79769313486e+308,0.0,0.0,0.0,1.79769313486e+308,0.0,0.0,0.0,0.05,0.0,0.0,0.0,1.79769313486e+308,0.0,0.0,0.0,1.79769313486e+308,0.0,0.0,0.0,0.05,0.0,0.0,0.0,0.0,0.0,0.0,0.0,0.0,0.0,0.0,0.0,0.0
1494449910723386022,95,1494449910773081062,gyro_link,0.0,0.0,0.0,1.0,1.79769313486e+308,0.0,0.0,0.0,1.79769313486e+308,0.0,0.0,0.0,0.05,0.0,0.0,0.0,1.79769313486e+308,0.0,0.0,0.0,1.79769313486e+308,0.0,0.0,0.0,0.05,0.0,0.0,0.0,0.0,0.0,0.0,0.0,0.0,0.0,0.0,0.0,0.0
1494449910746982368,96,1494449910794224889,gyro_link,0.0,0.0,0.0,1.0,1.79769313486e+308,0.0,0.0,0.0,1.79769313486e+308,0.0,0.0,0.0,0.05,0.0,0.0,0.0,1.79769313486e+308,0.0,0.0,0.0,1.79769313486e+308,0.0,0.0,0.0,0.05,0.0,0.0,0.0,0.0,0.0,0.0,0.0,0.0,0.0,0.0,0.0,0.0
1494449910759672259,97,1494449910813065852,gyro_link,0.0,0.0,0.0,1.0,1.79769313486e+308,0.0,0.0,0.0,1.79769313486e+308,0.0,0.0,0.0,0.05,0.0,0.0,0.0,1.79769313486e+308,0.0,0.0,0.0,1.79769313486e+308,0.0,0.0,0.0,0.05,0.0,0.0,0.0,0.0,0.0,0.0,0.0,0.0,0.0,0.0,0.0,0.0
1494449910779417954,98,1494449910832724936,gyro_link,0.0,0.0,0.0,1.0,1.79769313486e+308,0.0,0.0,0.0,1.79769313486e+308,0.0,0.0,0.0,0.05,0.0,0.0,0.0,1.79769313486e+308,0.0,0.0,0.0,1.79769313486e+308,0.0,0.0,0.0,0.05,0.0,0.0,0.0,0.0,0.0,0.0,0.0,0.0,0.0,0.0,0.0,0.0
1494449910800354447,99,1494449910852725643,gyro_link,0.0,0.0,0.0,1.0,1.79769313486e+308,0.0,0.0,0.0,1.79769313486e+308,0.0,0.0,0.0,0.05,0.0,0.0,0.0,1.79769313486e+308,0.0,0.0,0.0,1.79769313486e+308,0.0,0.0,0.0,0.05,0.0,0.0,0.0,0.0,0.0,0.0,0.0,0.0,0.0,0.0,0.0,0.0
1494449910818842719,100,1494449910872535643,gyro_link,0.0,0.0,0.0,1.0,1.79769313486e+308,0.0,0.0,0.0,1.79769313486e+308,0.0,0.0,0.0,0.05,0.0,0.0,0.0,1.79769313486e+308,0.0,0.0,0.0,1.79769313486e+308,0.0,0.0,0.0,0.05,0.0,0.0,0.0,0.0,0.0,0.0,0.0,0.0,0.0,0.0,0.0,0.0
1494449910839589157,101,1494449910892472060,gyro_link,0.0,0.0,0.0,1.0,1.79769313486e+308,0.0,0.0,0.0,1.79769313486e+308,0.0,0.0,0.0,0.05,0.0,0.0,0.0,1.79769313486e+308,0.0,0.0,0.0,1.79769313486e+308,0.0,0.0,0.0,0.05,0.0,0.0,0.0,0.0,0.0,0.0,0.0,0.0,0.0,0.0,0.0,0.0
1494449910859439451,102,1494449910912582100,gyro_link,0.0,0.0,0.0,1.0,1.79769313486e+308,0.0,0.0,0.0,1.79769313486e+308,0.0,0.0,0.0,0.05,0.0,0.0,0.0,1.79769313486e+308,0.0,0.0,0.0,1.79769313486e+308,0.0,0.0,0.0,0.05,0.0,0.0,0.0,0.0,0.0,0.0,0.0,0.0,0.0,0.0,0.0,0.0
1494449910883304055,103,1494449910934133509,gyro_link,0.0,0.0,0.0,1.0,1.79769313486e+308,0.0,0.0,0.0,1.79769313486e+308,0.0,0.0,0.0,0.05,0.0,0.0,0.0,1.79769313486e+308,0.0,0.0,0.0,1.79769313486e+308,0.0,0.0,0.0,0.05,0.0,0.0,0.0,0.0,0.0,0.0,0.0,0.0,0.0,0.0,0.0,0.0
1494449911005282959,104,1494449910953552844,gyro_link,0.0,0.0,0.0,1.0,1.79769313486e+308,0.0,0.0,0.0,1.79769313486e+308,0.0,0.0,0.0,0.05,0.0,0.0,0.0,1.79769313486e+308,0.0,0.0,0.0,1.79769313486e+308,0.0,0.0,0.0,0.05,0.0,0.0,0.0,0.0,0.0,0.0,0.0,0.0,0.0,0.0,0.0,0.0
1494449911005301077,105,1494449910973538469,gyro_link,0.0,0.0,0.0,1.0,1.79769313486e+308,0.0,0.0,0.0,1.79769313486e+308,0.0,0.0,0.0,0.05,0.0,0.0,0.0,1.79769313486e+308,0.0,0.0,0.0,1.79769313486e+308,0.0,0.0,0.0,0.05,0.0,0.0,0.0,0.0,0.0,0.0,0.0,0.0,0.0,0.0,0.0,0.0
1494449911005315657,106,1494449910994600547,gyro_link,0.0,0.0,0.0,1.0,1.79769313486e+308,0.0,0.0,0.0,1.79769313486e+308,0.0,0.0,0.0,0.05,0.0,0.0,0.0,1.79769313486e+308,0.0,0.0,0.0,1.79769313486e+308,0.0,0.0,0.0,0.05,0.0,0.0,0.0,0.0,0.0,0.0,0.0,0.0,0.0,0.0,0.0,0.0
1494449911005329794,107,1494449911014386589,gyro_link,0.0,0.0,0.0,1.0,1.79769313486e+308,0.0,0.0,0.0,1.79769313486e+308,0.0,0.0,0.0,0.05,0.0,0.0,0.0,1.79769313486e+308,0.0,0.0,0.0,1.79769313486e+308,0.0,0.0,0.0,0.05,0.0,0.0,0.0,0.0,0.0,0.0,0.0,0.0,0.0,0.0,0.0,0.0
1494449911005335744,108,1494449911033099260,gyro_link,0.0,0.0,0.0,1.0,1.79769313486e+308,0.0,0.0,0.0,1.79769313486e+308,0.0,0.0,0.0,0.05,0.0,0.0,0.0,1.79769313486e+308,0.0,0.0,0.0,1.79769313486e+308,0.0,0.0,0.0,0.05,0.0,0.0,0.0,0.0,0.0,0.0,0.0,0.0,0.0,0.0,0.0,0.0
1494449911006756328,109,1494449911053458965,gyro_link,0.0,0.0,0.0,1.0,1.79769313486e+308,0.0,0.0,0.0,1.79769313486e+308,0.0,0.0,0.0,0.05,0.0,0.0,0.0,1.79769313486e+308,0.0,0.0,0.0,1.79769313486e+308,0.0,0.0,0.0,0.05,0.0,0.0,0.0,0.0,0.0,0.0,0.0,0.0,0.0,0.0,0.0,0.0
1494449911024268457,110,1494449911074644376,gyro_link,0.0,0.0,0.0,1.0,1.79769313486e+308,0.0,0.0,0.0,1.79769313486e+308,0.0,0.0,0.0,0.05,0.0,0.0,0.0,1.79769313486e+308,0.0,0.0,0.0,1.79769313486e+308,0.0,0.0,0.0,0.05,0.0,0.0,0.0,0.0,0.0,0.0,0.0,0.0,0.0,0.0,0.0,0.0
1494449911059872295,111,1494449911093404422,gyro_link,0.0,0.0,0.0,1.0,1.79769313486e+308,0.0,0.0,0.0,1.79769313486e+308,0.0,0.0,0.0,0.05,0.0,0.0,0.0,1.79769313486e+308,0.0,0.0,0.0,1.79769313486e+308,0.0,0.0,0.0,0.05,0.0,0.0,0.0,0.0,0.0,0.0,0.0,0.0,0.0,0.0,0.0,0.0
1494449911071712678,112,1494449911113013339,gyro_link,0.0,0.0,0.0,1.0,1.79769313486e+308,0.0,0.0,0.0,1.79769313486e+308,0.0,0.0,0.0,0.05,0.0,0.0,0.0,1.79769313486e+308,0.0,0.0,0.0,1.79769313486e+308,0.0,0.0,0.0,0.05,0.0,0.0,0.0,0.0,0.0,0.0,0.0,0.0,0.0,0.0,0.0,0.0
1494449911080663973,113,1494449911133085380,gyro_link,0.0,0.0,0.0,1.0,1.79769313486e+308,0.0,0.0,0.0,1.79769313486e+308,0.0,0.0,0.0,0.05,0.0,0.0,0.0,1.79769313486e+308,0.0,0.0,0.0,1.79769313486e+308,0.0,0.0,0.0,0.05,0.0,0.0,0.0,0.0,0.0,0.0,0.0,0.0,0.0,0.0,0.0,0.0
1494449911098357159,114,1494449911152779963,gyro_link,0.0,0.0,0.0,1.0,1.79769313486e+308,0.0,0.0,0.0,1.79769313486e+308,0.0,0.0,0.0,0.05,0.0,0.0,0.0,1.79769313486e+308,0.0,0.0,0.0,1.79769313486e+308,0.0,0.0,0.0,0.05,0.0,0.0,0.0,0.0,0.0,0.0,0.0,0.0,0.0,0.0,0.0,0.0
1494449911120342245,115,1494449911172611172,gyro_link,0.0,0.0,0.0,1.0,1.79769313486e+308,0.0,0.0,0.0,1.79769313486e+308,0.0,0.0,0.0,0.05,0.0,0.0,0.0,1.79769313486e+308,0.0,0.0,0.0,1.79769313486e+308,0.0,0.0,0.0,0.05,0.0,0.0,0.0,0.0,0.0,0.0,0.0,0.0,0.0,0.0,0.0,0.0
1494449911140526588,116,1494449911192588671,gyro_link,0.0,0.0,0.0,1.0,1.79769313486e+308,0.0,0.0,0.0,1.79769313486e+308,0.0,0.0,0.0,0.05,0.0,0.0,0.0,1.79769313486e+308,0.0,0.0,0.0,1.79769313486e+308,0.0,0.0,0.0,0.05,0.0,0.0,0.0,0.0,0.0,0.0,0.0,0.0,0.0,0.0,0.0,0.0
1494449911159910090,117,1494449911212449295,gyro_link,0.0,0.0,0.0,1.0,1.79769313486e+308,0.0,0.0,0.0,1.79769313486e+308,0.0,0.0,0.0,0.05,0.0,0.0,0.0,1.79769313486e+308,0.0,0.0,0.0,1.79769313486e+308,0.0,0.0,0.0,0.05,0.0,0.0,0.0,0.0,0.0,0.0,0.0,0.0,0.0,0.0,0.0,0.0
1494449911181003370,118,1494449911233502415,gyro_link,0.0,0.0,0.0,1.0,1.79769313486e+308,0.0,0.0,0.0,1.79769313486e+308,0.0,0.0,0.0,0.05,0.0,0.0,0.0,1.79769313486e+308,0.0,0.0,0.0,1.79769313486e+308,0.0,0.0,0.0,0.05,0.0,0.0,0.0,0.0,0.0,0.0,0.0,0.0,0.0,0.0,0.0,0.0
1494449911203201223,119,1494449911254044662,gyro_link,0.0,0.0,0.0,1.0,1.79769313486e+308,0.0,0.0,0.0,1.79769313486e+308,0.0,0.0,0.0,0.05,0.0,0.0,0.0,1.79769313486e+308,0.0,0.0,0.0,1.79769313486e+308,0.0,0.0,0.0,0.05,0.0,0.0,0.0,0.0,0.0,0.0,0.0,0.0,0.0,0.0,0.0,0.0
1494449911228535505,120,1494449911273567871,gyro_link,0.0,0.0,0.0,1.0,1.79769313486e+308,0.0,0.0,0.0,1.79769313486e+308,0.0,0.0,0.0,0.05,0.0,0.0,0.0,1.79769313486e+308,0.0,0.0,0.0,1.79769313486e+308,0.0,0.0,0.0,0.05,0.0,0.0,0.0,0.0,0.0,0.0,0.0,0.0,0.0,0.0,0.0,0.0
1494449911239217716,121,1494449911292661166,gyro_link,0.0,0.0,0.0,1.0,1.79769313486e+308,0.0,0.0,0.0,1.79769313486e+308,0.0,0.0,0.0,0.05,0.0,0.0,0.0,1.79769313486e+308,0.0,0.0,0.0,1.79769313486e+308,0.0,0.0,0.0,0.05,0.0,0.0,0.0,0.0,0.0,0.0,0.0,0.0,0.0,0.0,0.0,0.0
1494449911264240217,122,1494449911313476536,gyro_link,0.0,0.0,0.0,1.0,1.79769313486e+308,0.0,0.0,0.0,1.79769313486e+308,0.0,0.0,0.0,0.05,0.0,0.0,0.0,1.79769313486e+308,0.0,0.0,0.0,1.79769313486e+308,0.0,0.0,0.0,0.05,0.0,0.0,0.0,0.0,0.0,0.0,0.0,0.0,0.0,0.0,0.0,0.0
1494449911279328166,123,1494449911332437623,gyro_link,0.0,0.0,0.0,1.0,1.79769313486e+308,0.0,0.0,0.0,1.79769313486e+308,0.0,0.0,0.0,0.05,0.0,0.0,0.0,1.79769313486e+308,0.0,0.0,0.0,1.79769313486e+308,0.0,0.0,0.0,0.05,0.0,0.0,0.0,0.0,0.0,0.0,0.0,0.0,0.0,0.0,0.0,0.0
1494449911339669777,124,1494449911352341372,gyro_link,0.0,0.0,0.0,1.0,1.79769313486e+308,0.0,0.0,0.0,1.79769313486e+308,0.0,0.0,0.0,0.05,0.0,0.0,0.0,1.79769313486e+308,0.0,0.0,0.0,1.79769313486e+308,0.0,0.0,0.0,0.05,0.0,0.0,0.0,0.0,0.0,0.0,0.0,0.0,0.0,0.0,0.0,0.0
1494449911351352833,125,1494449911372828286,gyro_link,0.0,0.0,0.0,1.0,1.79769313486e+308,0.0,0.0,0.0,1.79769313486e+308,0.0,0.0,0.0,0.05,0.0,0.0,0.0,1.79769313486e+308,0.0,0.0,0.0,1.79769313486e+308,0.0,0.0,0.0,0.05,0.0,0.0,0.0,0.0,0.0,0.0,0.0,0.0,0.0,0.0,0.0,0.0
1494449911351360232,126,1494449911392467328,gyro_link,0.0,0.0,0.0,1.0,1.79769313486e+308,0.0,0.0,0.0,1.79769313486e+308,0.0,0.0,0.0,0.05,0.0,0.0,0.0,1.79769313486e+308,0.0,0.0,0.0,1.79769313486e+308,0.0,0.0,0.0,0.05,0.0,0.0,0.0,0.0,0.0,0.0,0.0,0.0,0.0,0.0,0.0,0.0
1494449911359839662,127,1494449911412271453,gyro_link,0.0,0.0,0.0,1.0,1.79769313486e+308,0.0,0.0,0.0,1.79769313486e+308,0.0,0.0,0.0,0.05,0.0,0.0,0.0,1.79769313486e+308,0.0,0.0,0.0,1.79769313486e+308,0.0,0.0,0.0,0.05,0.0,0.0,0.0,0.0,0.0,0.0,0.0,0.0,0.0,0.0,0.0,0.0
1494449911381225441,128,1494449911433343281,gyro_link,0.0,0.0,0.0,1.0,1.79769313486e+308,0.0,0.0,0.0,1.79769313486e+308,0.0,0.0,0.0,0.05,0.0,0.0,0.0,1.79769313486e+308,0.0,0.0,0.0,1.79769313486e+308,0.0,0.0,0.0,0.05,0.0,0.0,0.0,0.0,0.0,0.0,0.0,0.0,0.0,0.0,0.0,0.0
1494449911400634627,129,1494449911453476238,gyro_link,0.0,0.0,0.0,1.0,1.79769313486e+308,0.0,0.0,0.0,1.79769313486e+308,0.0,0.0,0.0,0.05,0.0,0.0,0.0,1.79769313486e+308,0.0,0.0,0.0,1.79769313486e+308,0.0,0.0,0.0,0.05,0.0,0.0,0.0,0.0,0.0,0.0,0.0,0.0,0.0,0.0,0.0,0.0
1494449911427798702,130,1494449911473378029,gyro_link,0.0,0.0,0.0,1.0,1.79769313486e+308,0.0,0.0,0.0,1.79769313486e+308,0.0,0.0,0.0,0.05,0.0,0.0,0.0,1.79769313486e+308,0.0,0.0,0.0,1.79769313486e+308,0.0,0.0,0.0,0.05,0.0,0.0,0.0,0.0,0.0,0.0,0.0,0.0,0.0,0.0,0.0,0.0
1494449911440626641,131,1494449911493454694,gyro_link,0.0,0.0,0.0,1.0,1.79769313486e+308,0.0,0.0,0.0,1.79769313486e+308,0.0,0.0,0.0,0.05,0.0,0.0,0.0,1.79769313486e+308,0.0,0.0,0.0,1.79769313486e+308,0.0,0.0,0.0,0.05,0.0,0.0,0.0,0.0,0.0,0.0,0.0,0.0,0.0,0.0,0.0,0.0
1494449911461136913,132,1494449911514353064,gyro_link,0.0,0.0,0.0,1.0,1.79769313486e+308,0.0,0.0,0.0,1.79769313486e+308,0.0,0.0,0.0,0.05,0.0,0.0,0.0,1.79769313486e+308,0.0,0.0,0.0,1.79769313486e+308,0.0,0.0,0.0,0.05,0.0,0.0,0.0,0.0,0.0,0.0,0.0,0.0,0.0,0.0,0.0,0.0
1494449911477966356,133,1494449911532264114,gyro_link,0.0,0.0,0.0,1.0,1.79769313486e+308,0.0,0.0,0.0,1.79769313486e+308,0.0,0.0,0.0,0.05,0.0,0.0,0.0,1.79769313486e+308,0.0,0.0,0.0,1.79769313486e+308,0.0,0.0,0.0,0.05,0.0,0.0,0.0,0.0,0.0,0.0,0.0,0.0,0.0,0.0,0.0,0.0
1494449911499358762,134,1494449911552354404,gyro_link,0.0,0.0,0.0,1.0,1.79769313486e+308,0.0,0.0,0.0,1.79769313486e+308,0.0,0.0,0.0,0.05,0.0,0.0,0.0,1.79769313486e+308,0.0,0.0,0.0,1.79769313486e+308,0.0,0.0,0.0,0.05,0.0,0.0,0.0,0.0,0.0,0.0,0.0,0.0,0.0,0.0,0.0,0.0
1494449911520217255,135,1494449911573293358,gyro_link,0.0,0.0,0.0,1.0,1.79769313486e+308,0.0,0.0,0.0,1.79769313486e+308,0.0,0.0,0.0,0.05,0.0,0.0,0.0,1.79769313486e+308,0.0,0.0,0.0,1.79769313486e+308,0.0,0.0,0.0,0.05,0.0,0.0,0.0,0.0,0.0,0.0,0.0,0.0,0.0,0.0,0.0,0.0
1494449911539813171,136,1494449911593382690,gyro_link,0.0,0.0,0.0,1.0,1.79769313486e+308,0.0,0.0,0.0,1.79769313486e+308,0.0,0.0,0.0,0.05,0.0,0.0,0.0,1.79769313486e+308,0.0,0.0,0.0,1.79769313486e+308,0.0,0.0,0.0,0.05,0.0,0.0,0.0,0.0,0.0,0.0,0.0,0.0,0.0,0.0,0.0,0.0
1494449911562490692,137,1494449911614222477,gyro_link,0.0,0.0,0.0,1.0,1.79769313486e+308,0.0,0.0,0.0,1.79769313486e+308,0.0,0.0,0.0,0.05,0.0,0.0,0.0,1.79769313486e+308,0.0,0.0,0.0,1.79769313486e+308,0.0,0.0,0.0,0.05,0.0,0.0,0.0,0.0,0.0,0.0,0.0,0.0,0.0,0.0,0.0,0.0
1494449911579792031,138,1494449911633349813,gyro_link,0.0,0.0,0.0,1.0,1.79769313486e+308,0.0,0.0,0.0,1.79769313486e+308,0.0,0.0,0.0,0.05,0.0,0.0,0.0,1.79769313486e+308,0.0,0.0,0.0,1.79769313486e+308,0.0,0.0,0.0,0.05,0.0,0.0,0.0,0.0,0.0,0.0,0.0,0.0,0.0,0.0,0.0,0.0
1494449911599653455,139,1494449911653352103,gyro_link,0.0,0.0,0.0,1.0,1.79769313486e+308,0.0,0.0,0.0,1.79769313486e+308,0.0,0.0,0.0,0.05,0.0,0.0,0.0,1.79769313486e+308,0.0,0.0,0.0,1.79769313486e+308,0.0,0.0,0.0,0.05,0.0,0.0,0.0,0.0,0.0,0.0,0.0,0.0,0.0,0.0,0.0,0.0
1494449911619967956,140,1494449911673194978,gyro_link,0.0,0.0,0.0,1.0,1.79769313486e+308,0.0,0.0,0.0,1.79769313486e+308,0.0,0.0,0.0,0.05,0.0,0.0,0.0,1.79769313486e+308,0.0,0.0,0.0,1.79769313486e+308,0.0,0.0,0.0,0.05,0.0,0.0,0.0,0.0,0.0,0.0,0.0,0.0,0.0,0.0,0.0,0.0
1494449911642059320,141,1494449911693446351,gyro_link,0.0,0.0,0.0,1.0,1.79769313486e+308,0.0,0.0,0.0,1.79769313486e+308,0.0,0.0,0.0,0.05,0.0,0.0,0.0,1.79769313486e+308,0.0,0.0,0.0,1.79769313486e+308,0.0,0.0,0.0,0.05,0.0,0.0,0.0,0.0,0.0,0.0,0.0,0.0,0.0,0.0,0.0,0.0
1494449911663493242,142,1494449911713283559,gyro_link,0.0,0.0,0.0,1.0,1.79769313486e+308,0.0,0.0,0.0,1.79769313486e+308,0.0,0.0,0.0,0.05,0.0,0.0,0.0,1.79769313486e+308,0.0,0.0,0.0,1.79769313486e+308,0.0,0.0,0.0,0.05,0.0,0.0,0.0,0.0,0.0,0.0,0.0,0.0,0.0,0.0,0.0,0.0
1494449911685660269,143,1494449911734320679,gyro_link,0.0,0.0,0.0,1.0,1.79769313486e+308,0.0,0.0,0.0,1.79769313486e+308,0.0,0.0,0.0,0.05,0.0,0.0,0.0,1.79769313486e+308,0.0,0.0,0.0,1.79769313486e+308,0.0,0.0,0.0,0.05,0.0,0.0,0.0,0.0,0.0,0.0,0.0,0.0,0.0,0.0,0.0,0.0
1494449911704901595,144,1494449911755497423,gyro_link,0.0,0.0,0.0,1.0,1.79769313486e+308,0.0,0.0,0.0,1.79769313486e+308,0.0,0.0,0.0,0.05,0.0,0.0,0.0,1.79769313486e+308,0.0,0.0,0.0,1.79769313486e+308,0.0,0.0,0.0,0.05,0.0,0.0,0.0,0.0,0.0,0.0,0.0,0.0,0.0,0.0,0.0,0.0
1494449911722427985,145,1494449911774354593,gyro_link,0.0,0.0,0.0,1.0,1.79769313486e+308,0.0,0.0,0.0,1.79769313486e+308,0.0,0.0,0.0,0.05,0.0,0.0,0.0,1.79769313486e+308,0.0,0.0,0.0,1.79769313486e+308,0.0,0.0,0.0,0.05,0.0,0.0,0.0,0.0,0.0,0.0,0.0,0.0,0.0,0.0,0.0,0.0
1494449911740500262,146,1494449911793379847,gyro_link,0.0,0.0,0.0,1.0,1.79769313486e+308,0.0,0.0,0.0,1.79769313486e+308,0.0,0.0,0.0,0.05,0.0,0.0,0.0,1.79769313486e+308,0.0,0.0,0.0,1.79769313486e+308,0.0,0.0,0.0,0.05,0.0,0.0,0.0,0.0,0.0,0.0,0.0,0.0,0.0,0.0,0.0,0.0
1494449911760668518,147,1494449911814253259,gyro_link,0.0,0.0,0.0,1.0,1.79769313486e+308,0.0,0.0,0.0,1.79769313486e+308,0.0,0.0,0.0,0.05,0.0,0.0,0.0,1.79769313486e+308,0.0,0.0,0.0,1.79769313486e+308,0.0,0.0,0.0,0.05,0.0,0.0,0.0,0.0,0.0,0.0,0.0,0.0,0.0,0.0,0.0,0.0
1494449911785467011,148,1494449911833731301,gyro_link,0.0,0.0,0.0,1.0,1.79769313486e+308,0.0,0.0,0.0,1.79769313486e+308,0.0,0.0,0.0,0.05,0.0,0.0,0.0,1.79769313486e+308,0.0,0.0,0.0,1.79769313486e+308,0.0,0.0,0.0,0.05,0.0,0.0,0.0,0.0,0.0,0.0,0.0,0.0,0.0,0.0,0.0,0.0
1494449911800566171,149,1494449911853479385,gyro_link,0.0,0.0,0.0,1.0,1.79769313486e+308,0.0,0.0,0.0,1.79769313486e+308,0.0,0.0,0.0,0.05,0.0,0.0,0.0,1.79769313486e+308,0.0,0.0,0.0,1.79769313486e+308,0.0,0.0,0.0,0.05,0.0,0.0,0.0,0.0,0.0,0.0,0.0,0.0,0.0,0.0,0.0,0.0
1494449911822975769,150,1494449911874096256,gyro_link,0.0,0.0,0.0,1.0,1.79769313486e+308,0.0,0.0,0.0,1.79769313486e+308,0.0,0.0,0.0,0.05,0.0,0.0,0.0,1.79769313486e+308,0.0,0.0,0.0,1.79769313486e+308,0.0,0.0,0.0,0.05,0.0,0.0,0.0,0.0,0.0,0.0,0.0,0.0,0.0,0.0,0.0,0.0
1494449911845306422,151,1494449911893967339,gyro_link,0.0,0.0,0.0,1.0,1.79769313486e+308,0.0,0.0,0.0,1.79769313486e+308,0.0,0.0,0.0,0.05,0.0,0.0,0.0,1.79769313486e+308,0.0,0.0,0.0,1.79769313486e+308,0.0,0.0,0.0,0.05,0.0,0.0,0.0,0.0,0.0,0.0,0.0,0.0,0.0,0.0,0.0,0.0
1494449911864625464,152,1494449911914111213,gyro_link,0.0,0.0,0.0,1.0,1.79769313486e+308,0.0,0.0,0.0,1.79769313486e+308,0.0,0.0,0.0,0.05,0.0,0.0,0.0,1.79769313486e+308,0.0,0.0,0.0,1.79769313486e+308,0.0,0.0,0.0,0.05,0.0,0.0,0.0,0.0,0.0,0.0,0.0,0.0,0.0,0.0,0.0,0.0
1494449911885761544,153,1494449911934154670,gyro_link,0.0,0.0,0.0,1.0,1.79769313486e+308,0.0,0.0,0.0,1.79769313486e+308,0.0,0.0,0.0,0.05,0.0,0.0,0.0,1.79769313486e+308,0.0,0.0,0.0,1.79769313486e+308,0.0,0.0,0.0,0.05,0.0,0.0,0.0,0.0,0.0,0.0,0.0,0.0,0.0,0.0,0.0,0.0
1494449911903598505,154,1494449911954208585,gyro_link,0.0,0.0,0.0,1.0,1.79769313486e+308,0.0,0.0,0.0,1.79769313486e+308,0.0,0.0,0.0,0.05,0.0,0.0,0.0,1.79769313486e+308,0.0,0.0,0.0,1.79769313486e+308,0.0,0.0,0.0,0.05,0.0,0.0,0.0,0.0,0.0,0.0,0.0,0.0,0.0,0.0,0.0,0.0
1494449911923869542,155,1494449911974305209,gyro_link,0.0,0.0,0.0,1.0,1.79769313486e+308,0.0,0.0,0.0,1.79769313486e+308,0.0,0.0,0.0,0.05,0.0,0.0,0.0,1.79769313486e+308,0.0,0.0,0.0,1.79769313486e+308,0.0,0.0,0.0,0.05,0.0,0.0,0.0,0.0,0.0,0.0,0.0,0.0,0.0,0.0,0.0,0.0
1494449911940869025,156,1494449911994223667,gyro_link,0.0,0.0,0.0,1.0,1.79769313486e+308,0.0,0.0,0.0,1.79769313486e+308,0.0,0.0,0.0,0.05,0.0,0.0,0.0,1.79769313486e+308,0.0,0.0,0.0,1.79769313486e+308,0.0,0.0,0.0,0.05,0.0,0.0,0.0,0.0,0.0,0.0,0.0,0.0,0.0,0.0,0.0,0.0
1494449911959752504,157,1494449912013203670,gyro_link,0.0,0.0,0.0,1.0,1.79769313486e+308,0.0,0.0,0.0,1.79769313486e+308,0.0,0.0,0.0,0.05,0.0,0.0,0.0,1.79769313486e+308,0.0,0.0,0.0,1.79769313486e+308,0.0,0.0,0.0,0.05,0.0,0.0,0.0,0.0,0.0,0.0,0.0,0.0,0.0,0.0,0.0,0.0
1494449911979729320,158,1494449912033221460,gyro_link,0.0,0.0,0.0,1.0,1.79769313486e+308,0.0,0.0,0.0,1.79769313486e+308,0.0,0.0,0.0,0.05,0.0,0.0,0.0,1.79769313486e+308,0.0,0.0,0.0,1.79769313486e+308,0.0,0.0,0.0,0.05,0.0,0.0,0.0,0.0,0.0,0.0,0.0,0.0,0.0,0.0,0.0,0.0
1494449912000224952,159,1494449912053362667,gyro_link,0.0,0.0,0.0,1.0,1.79769313486e+308,0.0,0.0,0.0,1.79769313486e+308,0.0,0.0,0.0,0.05,0.0,0.0,0.0,1.79769313486e+308,0.0,0.0,0.0,1.79769313486e+308,0.0,0.0,0.0,0.05,0.0,0.0,0.0,0.0,0.0,0.0,0.0,0.0,0.0,0.0,0.0,0.0
1494449912050461727,160,1494449912073178458,gyro_link,0.0,0.0,0.0,1.0,1.79769313486e+308,0.0,0.0,0.0,1.79769313486e+308,0.0,0.0,0.0,0.05,0.0,0.0,0.0,1.79769313486e+308,0.0,0.0,0.0,1.79769313486e+308,0.0,0.0,0.0,0.05,0.0,0.0,0.0,0.0,0.0,0.0,0.0,0.0,0.0,0.0,0.0,0.0
1494449912073883529,161,1494449912093095707,gyro_link,0.0,0.0,0.0,1.0,1.79769313486e+308,0.0,0.0,0.0,1.79769313486e+308,0.0,0.0,0.0,0.05,0.0,0.0,0.0,1.79769313486e+308,0.0,0.0,0.0,1.79769313486e+308,0.0,0.0,0.0,0.05,0.0,0.0,0.0,0.0,0.0,0.0,0.0,0.0,0.0,0.0,0.0,0.0
1494449912073914525,162,1494449912114027077,gyro_link,0.0,0.0,0.0,1.0,1.79769313486e+308,0.0,0.0,0.0,1.79769313486e+308,0.0,0.0,0.0,0.05,0.0,0.0,0.0,1.79769313486e+308,0.0,0.0,0.0,1.79769313486e+308,0.0,0.0,0.0,0.05,0.0,0.0,0.0,0.0,0.0,0.0,0.0,0.0,0.0,0.0,0.0,0.0
1494449912083219179,163,1494449912134396533,gyro_link,0.0,0.0,0.0,1.0,1.79769313486e+308,0.0,0.0,0.0,1.79769313486e+308,0.0,0.0,0.0,0.05,0.0,0.0,0.0,1.79769313486e+308,0.0,0.0,0.0,1.79769313486e+308,0.0,0.0,0.0,0.05,0.0,0.0,0.0,0.0,0.0,0.0,0.0,0.0,0.0,0.0,0.0,0.0
1494449912100108255,164,1494449912153384369,gyro_link,0.0,0.0,0.0,1.0,1.79769313486e+308,0.0,0.0,0.0,1.79769313486e+308,0.0,0.0,0.0,0.05,0.0,0.0,0.0,1.79769313486e+308,0.0,0.0,0.0,1.79769313486e+308,0.0,0.0,0.0,0.05,0.0,0.0,0.0,0.0,0.0,0.0,0.0,0.0,0.0,0.0,0.0,0.0
1494449912118791714,165,1494449912173041411,gyro_link,0.0,0.0,0.0,1.0,1.79769313486e+308,0.0,0.0,0.0,1.79769313486e+308,0.0,0.0,0.0,0.05,0.0,0.0,0.0,1.79769313486e+308,0.0,0.0,0.0,1.79769313486e+308,0.0,0.0,0.0,0.05,0.0,0.0,0.0,0.0,0.0,0.0,0.0,0.0,0.0,0.0,0.0,0.0
1494449912148274393,166,1494449912194466029,gyro_link,0.0,0.0,0.0,1.0,1.79769313486e+308,0.0,0.0,0.0,1.79769313486e+308,0.0,0.0,0.0,0.05,0.0,0.0,0.0,1.79769313486e+308,0.0,0.0,0.0,1.79769313486e+308,0.0,0.0,0.0,0.05,0.0,0.0,0.0,0.0,0.0,0.0,0.0,0.0,0.0,0.0,0.0,0.0
1494449912165189558,167,1494449912214464694,gyro_link,0.0,0.0,0.0,1.0,1.79769313486e+308,0.0,0.0,0.0,1.79769313486e+308,0.0,0.0,0.0,0.05,0.0,0.0,0.0,1.79769313486e+308,0.0,0.0,0.0,1.79769313486e+308,0.0,0.0,0.0,0.05,0.0,0.0,0.0,0.0,0.0,0.0,0.0,0.0,0.0,0.0,0.0,0.0
1494449912182676481,168,1494449912234364110,gyro_link,0.0,0.0,0.0,1.0,1.79769313486e+308,0.0,0.0,0.0,1.79769313486e+308,0.0,0.0,0.0,0.05,0.0,0.0,0.0,1.79769313486e+308,0.0,0.0,0.0,1.79769313486e+308,0.0,0.0,0.0,0.05,0.0,0.0,0.0,0.0,0.0,0.0,0.0,0.0,0.0,0.0,0.0,0.0
1494449912202230749,169,1494449912256722974,gyro_link,0.0,0.0,0.0,1.0,1.79769313486e+308,0.0,0.0,0.0,1.79769313486e+308,0.0,0.0,0.0,0.05,0.0,0.0,0.0,1.79769313486e+308,0.0,0.0,0.0,1.79769313486e+308,0.0,0.0,0.0,0.05,0.0,0.0,0.0,0.0,0.0,0.0,0.0,0.0,0.0,0.0,0.0,0.0
1494449912222085778,170,1494449912274347233,gyro_link,0.0,0.0,0.0,1.0,1.79769313486e+308,0.0,0.0,0.0,1.79769313486e+308,0.0,0.0,0.0,0.05,0.0,0.0,0.0,1.79769313486e+308,0.0,0.0,0.0,1.79769313486e+308,0.0,0.0,0.0,0.05,0.0,0.0,0.0,0.0,0.0,0.0,0.0,0.0,0.0,0.0,0.0,0.0
1494449912239545061,171,1494449912293172987,gyro_link,0.0,0.0,0.0,1.0,1.79769313486e+308,0.0,0.0,0.0,1.79769313486e+308,0.0,0.0,0.0,0.05,0.0,0.0,0.0,1.79769313486e+308,0.0,0.0,0.0,1.79769313486e+308,0.0,0.0,0.0,0.05,0.0,0.0,0.0,0.0,0.0,0.0,0.0,0.0,0.0,0.0,0.0,0.0
1494449912259072964,172,1494449912313201985,gyro_link,0.0,0.0,0.0,1.0,1.79769313486e+308,0.0,0.0,0.0,1.79769313486e+308,0.0,0.0,0.0,0.05,0.0,0.0,0.0,1.79769313486e+308,0.0,0.0,0.0,1.79769313486e+308,0.0,0.0,0.0,0.05,0.0,0.0,0.0,0.0,0.0,0.0,0.0,0.0,0.0,0.0,0.0,0.0
1494449912279638892,173,1494449912333205651,gyro_link,0.0,0.0,0.0,1.0,1.79769313486e+308,0.0,0.0,0.0,1.79769313486e+308,0.0,0.0,0.0,0.05,0.0,0.0,0.0,1.79769313486e+308,0.0,0.0,0.0,1.79769313486e+308,0.0,0.0,0.0,0.05,0.0,0.0,0.0,0.0,0.0,0.0,0.0,0.0,0.0,0.0,0.0,0.0
1494449912303041358,174,1494449912354222979,gyro_link,0.0,0.0,0.0,1.0,1.79769313486e+308,0.0,0.0,0.0,1.79769313486e+308,0.0,0.0,0.0,0.05,0.0,0.0,0.0,1.79769313486e+308,0.0,0.0,0.0,1.79769313486e+308,0.0,0.0,0.0,0.05,0.0,0.0,0.0,0.0,0.0,0.0,0.0,0.0,0.0,0.0,0.0,0.0
1494449912323582045,175,1494449912375531222,gyro_link,0.0,0.0,0.0,1.0,1.79769313486e+308,0.0,0.0,0.0,1.79769313486e+308,0.0,0.0,0.0,0.05,0.0,0.0,0.0,1.79769313486e+308,0.0,0.0,0.0,1.79769313486e+308,0.0,0.0,0.0,0.05,0.0,0.0,0.0,0.0,0.0,0.0,0.0,0.0,0.0,0.0,0.0,0.0
1494449912342144854,176,1494449912394157102,gyro_link,0.0,0.0,0.0,1.0,1.79769313486e+308,0.0,0.0,0.0,1.79769313486e+308,0.0,0.0,0.0,0.05,0.0,0.0,0.0,1.79769313486e+308,0.0,0.0,0.0,1.79769313486e+308,0.0,0.0,0.0,0.05,0.0,0.0,0.0,0.0,0.0,0.0,0.0,0.0,0.0,0.0,0.0,0.0
1494449912363410971,177,1494449912414192475,gyro_link,0.0,0.0,0.0,1.0,1.79769313486e+308,0.0,0.0,0.0,1.79769313486e+308,0.0,0.0,0.0,0.05,0.0,0.0,0.0,1.79769313486e+308,0.0,0.0,0.0,1.79769313486e+308,0.0,0.0,0.0,0.05,0.0,0.0,0.0,0.0,0.0,0.0,0.0,0.0,0.0,0.0,0.0,0.0
1494449912381886578,178,1494449912434116974,gyro_link,0.0,0.0,0.0,1.0,1.79769313486e+308,0.0,0.0,0.0,1.79769313486e+308,0.0,0.0,0.0,0.05,0.0,0.0,0.0,1.79769313486e+308,0.0,0.0,0.0,1.79769313486e+308,0.0,0.0,0.0,0.05,0.0,0.0,0.0,0.0,0.0,0.0,0.0,0.0,0.0,0.0,0.0,0.0
1494449912401859803,179,1494449912454111348,gyro_link,0.0,0.0,0.0,1.0,1.79769313486e+308,0.0,0.0,0.0,1.79769313486e+308,0.0,0.0,0.0,0.05,0.0,0.0,0.0,1.79769313486e+308,0.0,0.0,0.0,1.79769313486e+308,0.0,0.0,0.0,0.05,0.0,0.0,0.0,0.0,0.0,0.0,0.0,0.0,0.0,0.0,0.0,0.0
1494449912422093974,180,1494449912474161097,gyro_link,0.0,0.0,0.0,1.0,1.79769313486e+308,0.0,0.0,0.0,1.79769313486e+308,0.0,0.0,0.0,0.05,0.0,0.0,0.0,1.79769313486e+308,0.0,0.0,0.0,1.79769313486e+308,0.0,0.0,0.0,0.05,0.0,0.0,0.0,0.0,0.0,0.0,0.0,0.0,0.0,0.0,0.0,0.0
1494449912444598048,181,1494449912494939342,gyro_link,0.0,0.0,0.0,1.0,1.79769313486e+308,0.0,0.0,0.0,1.79769313486e+308,0.0,0.0,0.0,0.05,0.0,0.0,0.0,1.79769313486e+308,0.0,0.0,0.0,1.79769313486e+308,0.0,0.0,0.0,0.05,0.0,0.0,0.0,0.0,0.0,0.0,0.0,0.0,0.0,0.0,0.0,0.0
1494449912461976108,182,1494449912514401385,gyro_link,0.0,0.0,0.0,1.0,1.79769313486e+308,0.0,0.0,0.0,1.79769313486e+308,0.0,0.0,0.0,0.05,0.0,0.0,0.0,1.79769313486e+308,0.0,0.0,0.0,1.79769313486e+308,0.0,0.0,0.0,0.05,0.0,0.0,0.0,0.0,0.0,0.0,0.0,0.0,0.0,0.0,0.0,0.0
1494449912480877167,183,1494449912533984594,gyro_link,0.0,0.0,0.0,1.0,1.79769313486e+308,0.0,0.0,0.0,1.79769313486e+308,0.0,0.0,0.0,0.05,0.0,0.0,0.0,1.79769313486e+308,0.0,0.0,0.0,1.79769313486e+308,0.0,0.0,0.0,0.05,0.0,0.0,0.0,0.0,0.0,0.0,0.0,0.0,0.0,0.0,0.0,0.0
1494449912604310511,184,1494449912554227675,gyro_link,0.0,0.0,0.0,1.0,1.79769313486e+308,0.0,0.0,0.0,1.79769313486e+308,0.0,0.0,0.0,0.05,0.0,0.0,0.0,1.79769313486e+308,0.0,0.0,0.0,1.79769313486e+308,0.0,0.0,0.0,0.05,0.0,0.0,0.0,0.0,0.0,0.0,0.0,0.0,0.0,0.0,0.0,0.0
1494449912604333142,185,1494449912575382336,gyro_link,0.0,0.0,0.0,1.0,1.79769313486e+308,0.0,0.0,0.0,1.79769313486e+308,0.0,0.0,0.0,0.05,0.0,0.0,0.0,1.79769313486e+308,0.0,0.0,0.0,1.79769313486e+308,0.0,0.0,0.0,0.05,0.0,0.0,0.0,0.0,0.0,0.0,0.0,0.0,0.0,0.0,0.0,0.0
1494449912604340673,186,1494449912594267089,gyro_link,0.0,0.0,0.0,1.0,1.79769313486e+308,0.0,0.0,0.0,1.79769313486e+308,0.0,0.0,0.0,0.05,0.0,0.0,0.0,1.79769313486e+308,0.0,0.0,0.0,1.79769313486e+308,0.0,0.0,0.0,0.05,0.0,0.0,0.0,0.0,0.0,0.0,0.0,0.0,0.0,0.0,0.0,0.0
1494449912604348699,187,1494449912614773836,gyro_link,0.0,0.0,0.0,1.0,1.79769313486e+308,0.0,0.0,0.0,1.79769313486e+308,0.0,0.0,0.0,0.05,0.0,0.0,0.0,1.79769313486e+308,0.0,0.0,0.0,1.79769313486e+308,0.0,0.0,0.0,0.05,0.0,0.0,0.0,0.0,0.0,0.0,0.0,0.0,0.0,0.0,0.0,0.0
1494449912604371335,188,1494449912634534669,gyro_link,0.0,0.0,0.0,1.0,1.79769313486e+308,0.0,0.0,0.0,1.79769313486e+308,0.0,0.0,0.0,0.05,0.0,0.0,0.0,1.79769313486e+308,0.0,0.0,0.0,1.79769313486e+308,0.0,0.0,0.0,0.05,0.0,0.0,0.0,0.0,0.0,0.0,0.0,0.0,0.0,0.0,0.0,0.0
1494449912606355172,189,1494449912654441460,gyro_link,0.0,0.0,0.0,1.0,1.79769313486e+308,0.0,0.0,0.0,1.79769313486e+308,0.0,0.0,0.0,0.05,0.0,0.0,0.0,1.79769313486e+308,0.0,0.0,0.0,1.79769313486e+308,0.0,0.0,0.0,0.05,0.0,0.0,0.0,0.0,0.0,0.0,0.0,0.0,0.0,0.0,0.0,0.0
1494449912620827575,190,1494449912674123044,gyro_link,0.0,0.0,0.0,1.0,1.79769313486e+308,0.0,0.0,0.0,1.79769313486e+308,0.0,0.0,0.0,0.05,0.0,0.0,0.0,1.79769313486e+308,0.0,0.0,0.0,1.79769313486e+308,0.0,0.0,0.0,0.05,0.0,0.0,0.0,0.0,0.0,0.0,0.0,0.0,0.0,0.0,0.0,0.0
1494449912640561076,191,1494449912694388500,gyro_link,0.0,0.0,0.0,1.0,1.79769313486e+308,0.0,0.0,0.0,1.79769313486e+308,0.0,0.0,0.0,0.05,0.0,0.0,0.0,1.79769313486e+308,0.0,0.0,0.0,1.79769313486e+308,0.0,0.0,0.0,0.05,0.0,0.0,0.0,0.0,0.0,0.0,0.0,0.0,0.0,0.0,0.0,0.0
1494449912662242303,192,1494449912714835163,gyro_link,0.0,0.0,0.0,1.0,1.79769313486e+308,0.0,0.0,0.0,1.79769313486e+308,0.0,0.0,0.0,0.05,0.0,0.0,0.0,1.79769313486e+308,0.0,0.0,0.0,1.79769313486e+308,0.0,0.0,0.0,0.05,0.0,0.0,0.0,0.0,0.0,0.0,0.0,0.0,0.0,0.0,0.0,0.0
1494449912681755840,193,1494449912734522205,gyro_link,0.0,0.0,0.0,1.0,1.79769313486e+308,0.0,0.0,0.0,1.79769313486e+308,0.0,0.0,0.0,0.05,0.0,0.0,0.0,1.79769313486e+308,0.0,0.0,0.0,1.79769313486e+308,0.0,0.0,0.0,0.05,0.0,0.0,0.0,0.0,0.0,0.0,0.0,0.0,0.0,0.0,0.0,0.0
1494449912702405367,194,1494449912755528575,gyro_link,0.0,0.0,0.0,1.0,1.79769313486e+308,0.0,0.0,0.0,1.79769313486e+308,0.0,0.0,0.0,0.05,0.0,0.0,0.0,1.79769313486e+308,0.0,0.0,0.0,1.79769313486e+308,0.0,0.0,0.0,0.05,0.0,0.0,0.0,0.0,0.0,0.0,0.0,0.0,0.0,0.0,0.0,0.0
1494449912725256748,195,1494449912774664285,gyro_link,0.0,0.0,0.0,1.0,1.79769313486e+308,0.0,0.0,0.0,1.79769313486e+308,0.0,0.0,0.0,0.05,0.0,0.0,0.0,1.79769313486e+308,0.0,0.0,0.0,1.79769313486e+308,0.0,0.0,0.0,0.05,0.0,0.0,0.0,0.0,0.0,0.0,0.0,0.0,0.0,0.0,0.0,0.0
1494449912744826019,196,1494449912794617409,gyro_link,0.0,0.0,0.0,1.0,1.79769313486e+308,0.0,0.0,0.0,1.79769313486e+308,0.0,0.0,0.0,0.05,0.0,0.0,0.0,1.79769313486e+308,0.0,0.0,0.0,1.79769313486e+308,0.0,0.0,0.0,0.05,0.0,0.0,0.0,0.0,0.0,0.0,0.0,0.0,0.0,0.0,0.0,0.0
1494449912763018492,197,1494449912814589950,gyro_link,0.0,0.0,0.0,1.0,1.79769313486e+308,0.0,0.0,0.0,1.79769313486e+308,0.0,0.0,0.0,0.05,0.0,0.0,0.0,1.79769313486e+308,0.0,0.0,0.0,1.79769313486e+308,0.0,0.0,0.0,0.05,0.0,0.0,0.0,0.0,0.0,0.0,0.0,0.0,0.0,0.0,0.0,0.0
1494449912788053911,198,1494449912835452653,gyro_link,0.0,0.0,0.0,1.0,1.79769313486e+308,0.0,0.0,0.0,1.79769313486e+308,0.0,0.0,0.0,0.05,0.0,0.0,0.0,1.79769313486e+308,0.0,0.0,0.0,1.79769313486e+308,0.0,0.0,0.0,0.05,0.0,0.0,0.0,0.0,0.0,0.0,0.0,0.0,0.0,0.0,0.0,0.0
1494449912806373675,199,1494449912854540239,gyro_link,0.0,0.0,0.0,1.0,1.79769313486e+308,0.0,0.0,0.0,1.79769313486e+308,0.0,0.0,0.0,0.05,0.0,0.0,0.0,1.79769313486e+308,0.0,0.0,0.0,1.79769313486e+308,0.0,0.0,0.0,0.05,0.0,0.0,0.0,0.0,0.0,0.0,0.0,0.0,0.0,0.0,0.0,0.0
1494449912822932268,200,1494449912874119573,gyro_link,0.0,0.0,0.0,1.0,1.79769313486e+308,0.0,0.0,0.0,1.79769313486e+308,0.0,0.0,0.0,0.05,0.0,0.0,0.0,1.79769313486e+308,0.0,0.0,0.0,1.79769313486e+308,0.0,0.0,0.0,0.05,0.0,0.0,0.0,0.0,0.0,0.0,0.0,0.0,0.0,0.0,0.0,0.0
1494449912841996814,201,1494449912893846490,gyro_link,0.0,0.0,0.0,1.0,1.79769313486e+308,0.0,0.0,0.0,1.79769313486e+308,0.0,0.0,0.0,0.05,0.0,0.0,0.0,1.79769313486e+308,0.0,0.0,0.0,1.79769313486e+308,0.0,0.0,0.0,0.05,0.0,0.0,0.0,0.0,0.0,0.0,0.0,0.0,0.0,0.0,0.0,0.0
1494449912861919203,202,1494449912913966613,gyro_link,0.0,0.0,0.0,1.0,1.79769313486e+308,0.0,0.0,0.0,1.79769313486e+308,0.0,0.0,0.0,0.05,0.0,0.0,0.0,1.79769313486e+308,0.0,0.0,0.0,1.79769313486e+308,0.0,0.0,0.0,0.05,0.0,0.0,0.0,0.0,0.0,0.0,0.0,0.0,0.0,0.0,0.0,0.0
1494449912880981540,203,1494449912934931108,gyro_link,0.0,0.0,0.0,1.0,1.79769313486e+308,0.0,0.0,0.0,1.79769313486e+308,0.0,0.0,0.0,0.05,0.0,0.0,0.0,1.79769313486e+308,0.0,0.0,0.0,1.79769313486e+308,0.0,0.0,0.0,0.05,0.0,0.0,0.0,0.0,0.0,0.0,0.0,0.0,0.0,0.0,0.0,0.0
1494449912902181376,204,1494449912955505979,gyro_link,0.0,0.0,0.0,1.0,1.79769313486e+308,0.0,0.0,0.0,1.79769313486e+308,0.0,0.0,0.0,0.05,0.0,0.0,0.0,1.79769313486e+308,0.0,0.0,0.0,1.79769313486e+308,0.0,0.0,0.0,0.05,0.0,0.0,0.0,0.0,0.0,0.0,0.0,0.0,0.0,0.0,0.0,0.0
1494449912922706969,205,1494449912975612186,gyro_link,0.0,0.0,0.0,1.0,1.79769313486e+308,0.0,0.0,0.0,1.79769313486e+308,0.0,0.0,0.0,0.05,0.0,0.0,0.0,1.79769313486e+308,0.0,0.0,0.0,1.79769313486e+308,0.0,0.0,0.0,0.05,0.0,0.0,0.0,0.0,0.0,0.0,0.0,0.0,0.0,0.0,0.0,0.0
1494449912941670248,206,1494449912994948396,gyro_link,0.0,0.0,0.0,1.0,1.79769313486e+308,0.0,0.0,0.0,1.79769313486e+308,0.0,0.0,0.0,0.05,0.0,0.0,0.0,1.79769313486e+308,0.0,0.0,0.0,1.79769313486e+308,0.0,0.0,0.0,0.05,0.0,0.0,0.0,0.0,0.0,0.0,0.0,0.0,0.0,0.0,0.0,0.0
1494449912965297534,207,1494449913015252685,gyro_link,0.0,0.0,0.0,1.0,1.79769313486e+308,0.0,0.0,0.0,1.79769313486e+308,0.0,0.0,0.0,0.05,0.0,0.0,0.0,1.79769313486e+308,0.0,0.0,0.0,1.79769313486e+308,0.0,0.0,0.0,0.05,0.0,0.0,0.0,0.0,0.0,0.0,0.0,0.0,0.0,0.0,0.0,0.0
1494449912982375436,208,1494449913034029272,gyro_link,0.0,0.0,0.0,1.0,1.79769313486e+308,0.0,0.0,0.0,1.79769313486e+308,0.0,0.0,0.0,0.05,0.0,0.0,0.0,1.79769313486e+308,0.0,0.0,0.0,1.79769313486e+308,0.0,0.0,0.0,0.05,0.0,0.0,0.0,0.0,0.0,0.0,0.0,0.0,0.0,0.0,0.0,0.0
1494449913001797260,209,1494449913053966646,gyro_link,0.0,0.0,0.0,1.0,1.79769313486e+308,0.0,0.0,0.0,1.79769313486e+308,0.0,0.0,0.0,0.05,0.0,0.0,0.0,1.79769313486e+308,0.0,0.0,0.0,1.79769313486e+308,0.0,0.0,0.0,0.05,0.0,0.0,0.0,0.0,0.0,0.0,0.0,0.0,0.0,0.0,0.0,0.0
1494449913023471181,210,1494449913073785812,gyro_link,0.0,0.0,0.0,1.0,1.79769313486e+308,0.0,0.0,0.0,1.79769313486e+308,0.0,0.0,0.0,0.05,0.0,0.0,0.0,1.79769313486e+308,0.0,0.0,0.0,1.79769313486e+308,0.0,0.0,0.0,0.05,0.0,0.0,0.0,0.0,0.0,0.0,0.0,0.0,0.0,0.0,0.0,0.0
1494449913044037530,211,1494449913094528766,gyro_link,0.0,0.0,0.0,1.0,1.79769313486e+308,0.0,0.0,0.0,1.79769313486e+308,0.0,0.0,0.0,0.05,0.0,0.0,0.0,1.79769313486e+308,0.0,0.0,0.0,1.79769313486e+308,0.0,0.0,0.0,0.05,0.0,0.0,0.0,0.0,0.0,0.0,0.0,0.0,0.0,0.0,0.0,0.0
1494449913066054503,212,1494449913114286474,gyro_link,0.0,0.0,0.0,1.0,1.79769313486e+308,0.0,0.0,0.0,1.79769313486e+308,0.0,0.0,0.0,0.05,0.0,0.0,0.0,1.79769313486e+308,0.0,0.0,0.0,1.79769313486e+308,0.0,0.0,0.0,0.05,0.0,0.0,0.0,0.0,0.0,0.0,0.0,0.0,0.0,0.0,0.0,0.0
1494449913081142801,213,1494449913135174927,gyro_link,0.0,0.0,0.0,1.0,1.79769313486e+308,0.0,0.0,0.0,1.79769313486e+308,0.0,0.0,0.0,0.05,0.0,0.0,0.0,1.79769313486e+308,0.0,0.0,0.0,1.79769313486e+308,0.0,0.0,0.0,0.05,0.0,0.0,0.0,0.0,0.0,0.0,0.0,0.0,0.0,0.0,0.0,0.0
1494449913102791794,214,1494449913154928635,gyro_link,0.0,0.0,0.0,1.0,1.79769313486e+308,0.0,0.0,0.0,1.79769313486e+308,0.0,0.0,0.0,0.05,0.0,0.0,0.0,1.79769313486e+308,0.0,0.0,0.0,1.79769313486e+308,0.0,0.0,0.0,0.05,0.0,0.0,0.0,0.0,0.0,0.0,0.0,0.0,0.0,0.0,0.0,0.0
1494449913122918425,215,1494449913175126383,gyro_link,0.0,0.0,0.0,1.0,1.79769313486e+308,0.0,0.0,0.0,1.79769313486e+308,0.0,0.0,0.0,0.05,0.0,0.0,0.0,1.79769313486e+308,0.0,0.0,0.0,1.79769313486e+308,0.0,0.0,0.0,0.05,0.0,0.0,0.0,0.0,0.0,0.0,0.0,0.0,0.0,0.0,0.0,0.0
1494449913142135551,216,1494449913194941882,gyro_link,0.0,0.0,0.0,1.0,1.79769313486e+308,0.0,0.0,0.0,1.79769313486e+308,0.0,0.0,0.0,0.05,0.0,0.0,0.0,1.79769313486e+308,0.0,0.0,0.0,1.79769313486e+308,0.0,0.0,0.0,0.05,0.0,0.0,0.0,0.0,0.0,0.0,0.0,0.0,0.0,0.0,0.0,0.0
1494449913161408925,217,1494449913214938714,gyro_link,0.0,0.0,0.0,1.0,1.79769313486e+308,0.0,0.0,0.0,1.79769313486e+308,0.0,0.0,0.0,0.05,0.0,0.0,0.0,1.79769313486e+308,0.0,0.0,0.0,1.79769313486e+308,0.0,0.0,0.0,0.05,0.0,0.0,0.0,0.0,0.0,0.0,0.0,0.0,0.0,0.0,0.0,0.0
1494449913183488957,218,1494449913235382544,gyro_link,0.0,0.0,0.0,1.0,1.79769313486e+308,0.0,0.0,0.0,1.79769313486e+308,0.0,0.0,0.0,0.05,0.0,0.0,0.0,1.79769313486e+308,0.0,0.0,0.0,1.79769313486e+308,0.0,0.0,0.0,0.05,0.0,0.0,0.0,0.0,0.0,0.0,0.0,0.0,0.0,0.0,0.0,0.0
1494449913201709775,219,1494449913254945420,gyro_link,0.0,0.0,0.0,1.0,1.79769313486e+308,0.0,0.0,0.0,1.79769313486e+308,0.0,0.0,0.0,0.05,0.0,0.0,0.0,1.79769313486e+308,0.0,0.0,0.0,1.79769313486e+308,0.0,0.0,0.0,0.05,0.0,0.0,0.0,0.0,0.0,0.0,0.0,0.0,0.0,0.0,0.0,0.0
1494449913224642310,220,1494449913277612574,gyro_link,0.0,0.0,0.0,1.0,1.79769313486e+308,0.0,0.0,0.0,1.79769313486e+308,0.0,0.0,0.0,0.05,0.0,0.0,0.0,1.79769313486e+308,0.0,0.0,0.0,1.79769313486e+308,0.0,0.0,0.0,0.05,0.0,0.0,0.0,0.0,0.0,0.0,0.0,0.0,0.0,0.0,0.0,0.0
1494449913243326462,221,1494449913294905417,gyro_link,0.0,0.0,0.0,1.0,1.79769313486e+308,0.0,0.0,0.0,1.79769313486e+308,0.0,0.0,0.0,0.05,0.0,0.0,0.0,1.79769313486e+308,0.0,0.0,0.0,1.79769313486e+308,0.0,0.0,0.0,0.05,0.0,0.0,0.0,0.0,0.0,0.0,0.0,0.0,0.0,0.0,0.0,0.0
1494449913263706829,222,1494449913316020703,gyro_link,0.0,0.0,0.0,1.0,1.79769313486e+308,0.0,0.0,0.0,1.79769313486e+308,0.0,0.0,0.0,0.05,0.0,0.0,0.0,1.79769313486e+308,0.0,0.0,0.0,1.79769313486e+308,0.0,0.0,0.0,0.05,0.0,0.0,0.0,0.0,0.0,0.0,0.0,0.0,0.0,0.0,0.0,0.0
1494449913280941455,223,1494449913335512620,gyro_link,0.0,0.0,0.0,1.0,1.79769313486e+308,0.0,0.0,0.0,1.79769313486e+308,0.0,0.0,0.0,0.05,0.0,0.0,0.0,1.79769313486e+308,0.0,0.0,0.0,1.79769313486e+308,0.0,0.0,0.0,0.05,0.0,0.0,0.0,0.0,0.0,0.0,0.0,0.0,0.0,0.0,0.0,0.0
1494449913305218252,224,1494449913355256411,gyro_link,0.0,0.0,0.0,1.0,1.79769313486e+308,0.0,0.0,0.0,1.79769313486e+308,0.0,0.0,0.0,0.05,0.0,0.0,0.0,1.79769313486e+308,0.0,0.0,0.0,1.79769313486e+308,0.0,0.0,0.0,0.05,0.0,0.0,0.0,0.0,0.0,0.0,0.0,0.0,0.0,0.0,0.0,0.0
1494449913322780533,225,1494449913374980411,gyro_link,0.0,0.0,0.0,1.0,1.79769313486e+308,0.0,0.0,0.0,1.79769313486e+308,0.0,0.0,0.0,0.05,0.0,0.0,0.0,1.79769313486e+308,0.0,0.0,0.0,1.79769313486e+308,0.0,0.0,0.0,0.05,0.0,0.0,0.0,0.0,0.0,0.0,0.0,0.0,0.0,0.0,0.0,0.0
1494449913342440315,226,1494449913395242034,gyro_link,0.0,0.0,0.0,1.0,1.79769313486e+308,0.0,0.0,0.0,1.79769313486e+308,0.0,0.0,0.0,0.05,0.0,0.0,0.0,1.79769313486e+308,0.0,0.0,0.0,1.79769313486e+308,0.0,0.0,0.0,0.05,0.0,0.0,0.0,0.0,0.0,0.0,0.0,0.0,0.0,0.0,0.0,0.0
1494449913361412637,227,1494449913415260741,gyro_link,0.0,0.0,0.0,1.0,1.79769313486e+308,0.0,0.0,0.0,1.79769313486e+308,0.0,0.0,0.0,0.05,0.0,0.0,0.0,1.79769313486e+308,0.0,0.0,0.0,1.79769313486e+308,0.0,0.0,0.0,0.05,0.0,0.0,0.0,0.0,0.0,0.0,0.0,0.0,0.0,0.0,0.0,0.0
1494449913381804314,228,1494449913434803491,gyro_link,0.0,0.0,0.0,1.0,1.79769313486e+308,0.0,0.0,0.0,1.79769313486e+308,0.0,0.0,0.0,0.05,0.0,0.0,0.0,1.79769313486e+308,0.0,0.0,0.0,1.79769313486e+308,0.0,0.0,0.0,0.05,0.0,0.0,0.0,0.0,0.0,0.0,0.0,0.0,0.0,0.0,0.0,0.0
1494449913401056512,229,1494449913454792323,gyro_link,0.0,0.0,0.0,1.0,1.79769313486e+308,0.0,0.0,0.0,1.79769313486e+308,0.0,0.0,0.0,0.05,0.0,0.0,0.0,1.79769313486e+308,0.0,0.0,0.0,1.79769313486e+308,0.0,0.0,0.0,0.05,0.0,0.0,0.0,0.0,0.0,0.0,0.0,0.0,0.0,0.0,0.0,0.0
1494449913422460242,230,1494449913474918905,gyro_link,0.0,0.0,0.0,1.0,1.79769313486e+308,0.0,0.0,0.0,1.79769313486e+308,0.0,0.0,0.0,0.05,0.0,0.0,0.0,1.79769313486e+308,0.0,0.0,0.0,1.79769313486e+308,0.0,0.0,0.0,0.05,0.0,0.0,0.0,0.0,0.0,0.0,0.0,0.0,0.0,0.0,0.0,0.0
1494449913445371705,231,1494449913495518276,gyro_link,0.0,0.0,0.0,1.0,1.79769313486e+308,0.0,0.0,0.0,1.79769313486e+308,0.0,0.0,0.0,0.05,0.0,0.0,0.0,1.79769313486e+308,0.0,0.0,0.0,1.79769313486e+308,0.0,0.0,0.0,0.05,0.0,0.0,0.0,0.0,0.0,0.0,0.0,0.0,0.0,0.0,0.0,0.0
1494449913464237859,232,1494449913516072314,gyro_link,0.0,0.0,0.0,1.0,1.79769313486e+308,0.0,0.0,0.0,1.79769313486e+308,0.0,0.0,0.0,0.05,0.0,0.0,0.0,1.79769313486e+308,0.0,0.0,0.0,1.79769313486e+308,0.0,0.0,0.0,0.05,0.0,0.0,0.0,0.0,0.0,0.0,0.0,0.0,0.0,0.0,0.0,0.0
1494449913481500096,233,1494449913534720985,gyro_link,0.0,0.0,0.0,1.0,1.79769313486e+308,0.0,0.0,0.0,1.79769313486e+308,0.0,0.0,0.0,0.05,0.0,0.0,0.0,1.79769313486e+308,0.0,0.0,0.0,1.79769313486e+308,0.0,0.0,0.0,0.05,0.0,0.0,0.0,0.0,0.0,0.0,0.0,0.0,0.0,0.0,0.0,0.0
1494449913502112860,234,1494449913554824399,gyro_link,0.0,0.0,0.0,1.0,1.79769313486e+308,0.0,0.0,0.0,1.79769313486e+308,0.0,0.0,0.0,0.05,0.0,0.0,0.0,1.79769313486e+308,0.0,0.0,0.0,1.79769313486e+308,0.0,0.0,0.0,0.05,0.0,0.0,0.0,0.0,0.0,0.0,0.0,0.0,0.0,0.0,0.0,0.0
1494449913524117259,235,1494449913574830856,gyro_link,0.0,0.0,0.0,1.0,1.79769313486e+308,0.0,0.0,0.0,1.79769313486e+308,0.0,0.0,0.0,0.05,0.0,0.0,0.0,1.79769313486e+308,0.0,0.0,0.0,1.79769313486e+308,0.0,0.0,0.0,0.05,0.0,0.0,0.0,0.0,0.0,0.0,0.0,0.0,0.0,0.0,0.0,0.0
1494449913541230771,236,1494449913594837813,gyro_link,0.0,0.0,0.0,1.0,1.79769313486e+308,0.0,0.0,0.0,1.79769313486e+308,0.0,0.0,0.0,0.05,0.0,0.0,0.0,1.79769313486e+308,0.0,0.0,0.0,1.79769313486e+308,0.0,0.0,0.0,0.05,0.0,0.0,0.0,0.0,0.0,0.0,0.0,0.0,0.0,0.0,0.0,0.0
1494449913564044253,237,1494449913614994894,gyro_link,0.0,0.0,0.0,1.0,1.79769313486e+308,0.0,0.0,0.0,1.79769313486e+308,0.0,0.0,0.0,0.05,0.0,0.0,0.0,1.79769313486e+308,0.0,0.0,0.0,1.79769313486e+308,0.0,0.0,0.0,0.05,0.0,0.0,0.0,0.0,0.0,0.0,0.0,0.0,0.0,0.0,0.0,0.0
1494449913584272787,238,1494449913635184517,gyro_link,0.0,0.0,0.0,1.0,1.79769313486e+308,0.0,0.0,0.0,1.79769313486e+308,0.0,0.0,0.0,0.05,0.0,0.0,0.0,1.79769313486e+308,0.0,0.0,0.0,1.79769313486e+308,0.0,0.0,0.0,0.05,0.0,0.0,0.0,0.0,0.0,0.0,0.0,0.0,0.0,0.0,0.0,0.0
1494449913601506368,239,1494449913654617518,gyro_link,0.0,0.0,0.0,1.0,1.79769313486e+308,0.0,0.0,0.0,1.79769313486e+308,0.0,0.0,0.0,0.05,0.0,0.0,0.0,1.79769313486e+308,0.0,0.0,0.0,1.79769313486e+308,0.0,0.0,0.0,0.05,0.0,0.0,0.0,0.0,0.0,0.0,0.0,0.0,0.0,0.0,0.0,0.0
1494449913640410808,240,1494449913674727850,gyro_link,0.0,0.0,0.0,1.0,1.79769313486e+308,0.0,0.0,0.0,1.79769313486e+308,0.0,0.0,0.0,0.05,0.0,0.0,0.0,1.79769313486e+308,0.0,0.0,0.0,1.79769313486e+308,0.0,0.0,0.0,0.05,0.0,0.0,0.0,0.0,0.0,0.0,0.0,0.0,0.0,0.0,0.0,0.0
1494449913644060810,241,1494449913695904427,gyro_link,0.0,0.0,0.0,1.0,1.79769313486e+308,0.0,0.0,0.0,1.79769313486e+308,0.0,0.0,0.0,0.05,0.0,0.0,0.0,1.79769313486e+308,0.0,0.0,0.0,1.79769313486e+308,0.0,0.0,0.0,0.05,0.0,0.0,0.0,0.0,0.0,0.0,0.0,0.0,0.0,0.0,0.0,0.0
1494449913662670606,242,1494449913715961050,gyro_link,0.0,0.0,0.0,1.0,1.79769313486e+308,0.0,0.0,0.0,1.79769313486e+308,0.0,0.0,0.0,0.05,0.0,0.0,0.0,1.79769313486e+308,0.0,0.0,0.0,1.79769313486e+308,0.0,0.0,0.0,0.05,0.0,0.0,0.0,0.0,0.0,0.0,0.0,0.0,0.0,0.0,0.0,0.0
1494449913683704220,243,1494449913735942674,gyro_link,0.0,0.0,0.0,1.0,1.79769313486e+308,0.0,0.0,0.0,1.79769313486e+308,0.0,0.0,0.0,0.05,0.0,0.0,0.0,1.79769313486e+308,0.0,0.0,0.0,1.79769313486e+308,0.0,0.0,0.0,0.05,0.0,0.0,0.0,0.0,0.0,0.0,0.0,0.0,0.0,0.0,0.0,0.0
1494449913704211815,244,1494449913757451124,gyro_link,0.0,0.0,0.0,1.0,1.79769313486e+308,0.0,0.0,0.0,1.79769313486e+308,0.0,0.0,0.0,0.05,0.0,0.0,0.0,1.79769313486e+308,0.0,0.0,0.0,1.79769313486e+308,0.0,0.0,0.0,0.05,0.0,0.0,0.0,0.0,0.0,0.0,0.0,0.0,0.0,0.0,0.0,0.0
1494449913723232209,245,1494449913775941421,gyro_link,0.0,0.0,0.0,1.0,1.79769313486e+308,0.0,0.0,0.0,1.79769313486e+308,0.0,0.0,0.0,0.05,0.0,0.0,0.0,1.79769313486e+308,0.0,0.0,0.0,1.79769313486e+308,0.0,0.0,0.0,0.05,0.0,0.0,0.0,0.0,0.0,0.0,0.0,0.0,0.0,0.0,0.0,0.0
1494449913742298623,246,1494449913794706217,gyro_link,0.0,0.0,0.0,1.0,1.79769313486e+308,0.0,0.0,0.0,1.79769313486e+308,0.0,0.0,0.0,0.05,0.0,0.0,0.0,1.79769313486e+308,0.0,0.0,0.0,1.79769313486e+308,0.0,0.0,0.0,0.05,0.0,0.0,0.0,0.0,0.0,0.0,0.0,0.0,0.0,0.0,0.0,0.0
1494449913762911107,247,1494449913815018005,gyro_link,0.0,0.0,0.0,1.0,1.79769313486e+308,0.0,0.0,0.0,1.79769313486e+308,0.0,0.0,0.0,0.05,0.0,0.0,0.0,1.79769313486e+308,0.0,0.0,0.0,1.79769313486e+308,0.0,0.0,0.0,0.05,0.0,0.0,0.0,0.0,0.0,0.0,0.0,0.0,0.0,0.0,0.0,0.0
1494449913783341286,248,1494449913834881880,gyro_link,0.0,0.0,0.0,1.0,1.79769313486e+308,0.0,0.0,0.0,1.79769313486e+308,0.0,0.0,0.0,0.05,0.0,0.0,0.0,1.79769313486e+308,0.0,0.0,0.0,1.79769313486e+308,0.0,0.0,0.0,0.05,0.0,0.0,0.0,0.0,0.0,0.0,0.0,0.0,0.0,0.0,0.0,0.0
1494449913801540507,249,1494449913854723462,gyro_link,0.0,0.0,0.0,1.0,1.79769313486e+308,0.0,0.0,0.0,1.79769313486e+308,0.0,0.0,0.0,0.05,0.0,0.0,0.0,1.79769313486e+308,0.0,0.0,0.0,1.79769313486e+308,0.0,0.0,0.0,0.05,0.0,0.0,0.0,0.0,0.0,0.0,0.0,0.0,0.0,0.0,0.0,0.0
1494449913822384388,250,1494449913874867127,gyro_link,0.0,0.0,0.0,1.0,1.79769313486e+308,0.0,0.0,0.0,1.79769313486e+308,0.0,0.0,0.0,0.05,0.0,0.0,0.0,1.79769313486e+308,0.0,0.0,0.0,1.79769313486e+308,0.0,0.0,0.0,0.05,0.0,0.0,0.0,0.0,0.0,0.0,0.0,0.0,0.0,0.0,0.0,0.0
1494449913843936761,251,1494449913895792163,gyro_link,0.0,0.0,0.0,1.0,1.79769313486e+308,0.0,0.0,0.0,1.79769313486e+308,0.0,0.0,0.0,0.05,0.0,0.0,0.0,1.79769313486e+308,0.0,0.0,0.0,1.79769313486e+308,0.0,0.0,0.0,0.05,0.0,0.0,0.0,0.0,0.0,0.0,0.0,0.0,0.0,0.0,0.0,0.0
1494449913862898220,252,1494449913915799204,gyro_link,0.0,0.0,0.0,1.0,1.79769313486e+308,0.0,0.0,0.0,1.79769313486e+308,0.0,0.0,0.0,0.05,0.0,0.0,0.0,1.79769313486e+308,0.0,0.0,0.0,1.79769313486e+308,0.0,0.0,0.0,0.05,0.0,0.0,0.0,0.0,0.0,0.0,0.0,0.0,0.0,0.0,0.0,0.0
1494449913886074019,253,1494449913935861994,gyro_link,0.0,0.0,0.0,1.0,1.79769313486e+308,0.0,0.0,0.0,1.79769313486e+308,0.0,0.0,0.0,0.05,0.0,0.0,0.0,1.79769313486e+308,0.0,0.0,0.0,1.79769313486e+308,0.0,0.0,0.0,0.05,0.0,0.0,0.0,0.0,0.0,0.0,0.0,0.0,0.0,0.0,0.0,0.0
1494449913910573287,254,1494449913956857405,gyro_link,0.0,0.0,0.0,1.0,1.79769313486e+308,0.0,0.0,0.0,1.79769313486e+308,0.0,0.0,0.0,0.05,0.0,0.0,0.0,1.79769313486e+308,0.0,0.0,0.0,1.79769313486e+308,0.0,0.0,0.0,0.05,0.0,0.0,0.0,0.0,0.0,0.0,0.0,0.0,0.0,0.0,0.0,0.0
1494449913924263990,255,1494449913977439734,gyro_link,0.0,0.0,0.0,1.0,1.79769313486e+308,0.0,0.0,0.0,1.79769313486e+308,0.0,0.0,0.0,0.05,0.0,0.0,0.0,1.79769313486e+308,0.0,0.0,0.0,1.79769313486e+308,0.0,0.0,0.0,0.05,0.0,0.0,0.0,0.0,0.0,0.0,0.0,0.0,0.0,0.0,0.0,0.0
1494449913943408219,256,1494449913995888989,gyro_link,0.0,0.0,0.0,1.0,1.79769313486e+308,0.0,0.0,0.0,1.79769313486e+308,0.0,0.0,0.0,0.05,0.0,0.0,0.0,1.79769313486e+308,0.0,0.0,0.0,1.79769313486e+308,0.0,0.0,0.0,0.05,0.0,0.0,0.0,0.0,0.0,0.0,0.0,0.0,0.0,0.0,0.0,0.0
1494449913961790572,257,1494449914015672989,gyro_link,0.0,0.0,0.0,1.0,1.79769313486e+308,0.0,0.0,0.0,1.79769313486e+308,0.0,0.0,0.0,0.05,0.0,0.0,0.0,1.79769313486e+308,0.0,0.0,0.0,1.79769313486e+308,0.0,0.0,0.0,0.05,0.0,0.0,0.0,0.0,0.0,0.0,0.0,0.0,0.0,0.0,0.0,0.0
1494449913988212090,258,1494449914035710362,gyro_link,0.0,0.0,0.0,1.0,1.79769313486e+308,0.0,0.0,0.0,1.79769313486e+308,0.0,0.0,0.0,0.05,0.0,0.0,0.0,1.79769313486e+308,0.0,0.0,0.0,1.79769313486e+308,0.0,0.0,0.0,0.05,0.0,0.0,0.0,0.0,0.0,0.0,0.0,0.0,0.0,0.0,0.0,0.0
1494449914003441793,259,1494449914055892318,gyro_link,0.0,0.0,0.0,1.0,1.79769313486e+308,0.0,0.0,0.0,1.79769313486e+308,0.0,0.0,0.0,0.05,0.0,0.0,0.0,1.79769313486e+308,0.0,0.0,0.0,1.79769313486e+308,0.0,0.0,0.0,0.05,0.0,0.0,0.0,0.0,0.0,0.0,0.0,0.0,0.0,0.0,0.0,0.0
1494449914028557969,260,1494449914077199061,gyro_link,0.0,0.0,0.0,1.0,1.79769313486e+308,0.0,0.0,0.0,1.79769313486e+308,0.0,0.0,0.0,0.05,0.0,0.0,0.0,1.79769313486e+308,0.0,0.0,0.0,1.79769313486e+308,0.0,0.0,0.0,0.05,0.0,0.0,0.0,0.0,0.0,0.0,0.0,0.0,0.0,0.0,0.0,0.0
1494449914043276103,261,1494449914095816648,gyro_link,0.0,0.0,0.0,1.0,1.79769313486e+308,0.0,0.0,0.0,1.79769313486e+308,0.0,0.0,0.0,0.05,0.0,0.0,0.0,1.79769313486e+308,0.0,0.0,0.0,1.79769313486e+308,0.0,0.0,0.0,0.05,0.0,0.0,0.0,0.0,0.0,0.0,0.0,0.0,0.0,0.0,0.0,0.0
1494449914063374946,262,1494449914115972854,gyro_link,0.0,0.0,0.0,1.0,1.79769313486e+308,0.0,0.0,0.0,1.79769313486e+308,0.0,0.0,0.0,0.05,0.0,0.0,0.0,1.79769313486e+308,0.0,0.0,0.0,1.79769313486e+308,0.0,0.0,0.0,0.05,0.0,0.0,0.0,0.0,0.0,0.0,0.0,0.0,0.0,0.0,0.0,0.0
1494449914082950956,263,1494449914135833103,gyro_link,0.0,0.0,0.0,1.0,1.79769313486e+308,0.0,0.0,0.0,1.79769313486e+308,0.0,0.0,0.0,0.05,0.0,0.0,0.0,1.79769313486e+308,0.0,0.0,0.0,1.79769313486e+308,0.0,0.0,0.0,0.05,0.0,0.0,0.0,0.0,0.0,0.0,0.0,0.0,0.0,0.0,0.0,0.0
1494449914102451121,264,1494449914155809102,gyro_link,0.0,0.0,0.0,1.0,1.79769313486e+308,0.0,0.0,0.0,1.79769313486e+308,0.0,0.0,0.0,0.05,0.0,0.0,0.0,1.79769313486e+308,0.0,0.0,0.0,1.79769313486e+308,0.0,0.0,0.0,0.05,0.0,0.0,0.0,0.0,0.0,0.0,0.0,0.0,0.0,0.0,0.0,0.0
1494449914123861111,265,1494449914176772096,gyro_link,0.0,0.0,0.0,1.0,1.79769313486e+308,0.0,0.0,0.0,1.79769313486e+308,0.0,0.0,0.0,0.05,0.0,0.0,0.0,1.79769313486e+308,0.0,0.0,0.0,1.79769313486e+308,0.0,0.0,0.0,0.05,0.0,0.0,0.0,0.0,0.0,0.0,0.0,0.0,0.0,0.0,0.0,0.0
1494449914142446991,266,1494449914195710557,gyro_link,0.0,0.0,0.0,1.0,1.79769313486e+308,0.0,0.0,0.0,1.79769313486e+308,0.0,0.0,0.0,0.05,0.0,0.0,0.0,1.79769313486e+308,0.0,0.0,0.0,1.79769313486e+308,0.0,0.0,0.0,0.05,0.0,0.0,0.0,0.0,0.0,0.0,0.0,0.0,0.0,0.0,0.0,0.0
1494449914161572884,267,1494449914215727472,gyro_link,0.0,0.0,0.0,1.0,1.79769313486e+308,0.0,0.0,0.0,1.79769313486e+308,0.0,0.0,0.0,0.05,0.0,0.0,0.0,1.79769313486e+308,0.0,0.0,0.0,1.79769313486e+308,0.0,0.0,0.0,0.05,0.0,0.0,0.0,0.0,0.0,0.0,0.0,0.0,0.0,0.0,0.0,0.0
1494449914181510271,268,1494449914235682554,gyro_link,0.0,0.0,0.0,1.0,1.79769313486e+308,0.0,0.0,0.0,1.79769313486e+308,0.0,0.0,0.0,0.05,0.0,0.0,0.0,1.79769313486e+308,0.0,0.0,0.0,1.79769313486e+308,0.0,0.0,0.0,0.05,0.0,0.0,0.0,0.0,0.0,0.0,0.0,0.0,0.0,0.0,0.0,0.0
1494449914202001481,269,1494449914255733636,gyro_link,0.0,0.0,0.0,1.0,1.79769313486e+308,0.0,0.0,0.0,1.79769313486e+308,0.0,0.0,0.0,0.05,0.0,0.0,0.0,1.79769313486e+308,0.0,0.0,0.0,1.79769313486e+308,0.0,0.0,0.0,0.05,0.0,0.0,0.0,0.0,0.0,0.0,0.0,0.0,0.0,0.0,0.0,0.0
1494449914226506135,270,1494449914276960921,gyro_link,0.0,0.0,0.0,1.0,1.79769313486e+308,0.0,0.0,0.0,1.79769313486e+308,0.0,0.0,0.0,0.05,0.0,0.0,0.0,1.79769313486e+308,0.0,0.0,0.0,1.79769313486e+308,0.0,0.0,0.0,0.05,0.0,0.0,0.0,0.0,0.0,0.0,0.0,0.0,0.0,0.0,0.0,0.0
1494449914241756680,271,1494449914295700924,gyro_link,0.0,0.0,0.0,1.0,1.79769313486e+308,0.0,0.0,0.0,1.79769313486e+308,0.0,0.0,0.0,0.05,0.0,0.0,0.0,1.79769313486e+308,0.0,0.0,0.0,1.79769313486e+308,0.0,0.0,0.0,0.05,0.0,0.0,0.0,0.0,0.0,0.0,0.0,0.0,0.0,0.0,0.0,0.0
1494449914263097285,272,1494449914315812714,gyro_link,0.0,0.0,0.0,1.0,1.79769313486e+308,0.0,0.0,0.0,1.79769313486e+308,0.0,0.0,0.0,0.05,0.0,0.0,0.0,1.79769313486e+308,0.0,0.0,0.0,1.79769313486e+308,0.0,0.0,0.0,0.05,0.0,0.0,0.0,0.0,0.0,0.0,0.0,0.0,0.0,0.0,0.0,0.0
1494449914282959497,273,1494449914335708130,gyro_link,0.0,0.0,0.0,1.0,1.79769313486e+308,0.0,0.0,0.0,1.79769313486e+308,0.0,0.0,0.0,0.05,0.0,0.0,0.0,1.79769313486e+308,0.0,0.0,0.0,1.79769313486e+308,0.0,0.0,0.0,0.05,0.0,0.0,0.0,0.0,0.0,0.0,0.0,0.0,0.0,0.0,0.0,0.0
1494449914301759473,274,1494449914355684795,gyro_link,0.0,0.0,0.0,1.0,1.79769313486e+308,0.0,0.0,0.0,1.79769313486e+308,0.0,0.0,0.0,0.05,0.0,0.0,0.0,1.79769313486e+308,0.0,0.0,0.0,1.79769313486e+308,0.0,0.0,0.0,0.05,0.0,0.0,0.0,0.0,0.0,0.0,0.0,0.0,0.0,0.0,0.0,0.0
1494449914322757602,275,1494449914375843501,gyro_link,0.0,0.0,0.0,1.0,1.79769313486e+308,0.0,0.0,0.0,1.79769313486e+308,0.0,0.0,0.0,0.05,0.0,0.0,0.0,1.79769313486e+308,0.0,0.0,0.0,1.79769313486e+308,0.0,0.0,0.0,0.05,0.0,0.0,0.0,0.0,0.0,0.0,0.0,0.0,0.0,0.0,0.0,0.0
1494449914344576378,276,1494449914396648704,gyro_link,0.0,0.0,0.0,1.0,1.79769313486e+308,0.0,0.0,0.0,1.79769313486e+308,0.0,0.0,0.0,0.05,0.0,0.0,0.0,1.79769313486e+308,0.0,0.0,0.0,1.79769313486e+308,0.0,0.0,0.0,0.05,0.0,0.0,0.0,0.0,0.0,0.0,0.0,0.0,0.0,0.0,0.0,0.0
1494449914362077901,277,1494449914415596915,gyro_link,0.0,0.0,0.0,1.0,1.79769313486e+308,0.0,0.0,0.0,1.79769313486e+308,0.0,0.0,0.0,0.05,0.0,0.0,0.0,1.79769313486e+308,0.0,0.0,0.0,1.79769313486e+308,0.0,0.0,0.0,0.05,0.0,0.0,0.0,0.0,0.0,0.0,0.0,0.0,0.0,0.0,0.0,0.0
1494449914383403586,278,1494449914435842246,gyro_link,0.0,0.0,0.0,1.0,1.79769313486e+308,0.0,0.0,0.0,1.79769313486e+308,0.0,0.0,0.0,0.05,0.0,0.0,0.0,1.79769313486e+308,0.0,0.0,0.0,1.79769313486e+308,0.0,0.0,0.0,0.05,0.0,0.0,0.0,0.0,0.0,0.0,0.0,0.0,0.0,0.0,0.0,0.0
1494449914404298601,279,1494449914456706282,gyro_link,0.0,0.0,0.0,1.0,1.79769313486e+308,0.0,0.0,0.0,1.79769313486e+308,0.0,0.0,0.0,0.05,0.0,0.0,0.0,1.79769313486e+308,0.0,0.0,0.0,1.79769313486e+308,0.0,0.0,0.0,0.05,0.0,0.0,0.0,0.0,0.0,0.0,0.0,0.0,0.0,0.0,0.0,0.0
1494449914424859880,280,1494449914476370740,gyro_link,0.0,0.0,0.0,1.0,1.79769313486e+308,0.0,0.0,0.0,1.79769313486e+308,0.0,0.0,0.0,0.05,0.0,0.0,0.0,1.79769313486e+308,0.0,0.0,0.0,1.79769313486e+308,0.0,0.0,0.0,0.05,0.0,0.0,0.0,0.0,0.0,0.0,0.0,0.0,0.0,0.0,0.0,0.0
1494449914443882745,281,1494449914496503405,gyro_link,0.0,0.0,0.0,1.0,1.79769313486e+308,0.0,0.0,0.0,1.79769313486e+308,0.0,0.0,0.0,0.05,0.0,0.0,0.0,1.79769313486e+308,0.0,0.0,0.0,1.79769313486e+308,0.0,0.0,0.0,0.05,0.0,0.0,0.0,0.0,0.0,0.0,0.0,0.0,0.0,0.0,0.0,0.0
1494449914463629291,282,1494449914515774615,gyro_link,0.0,0.0,0.0,1.0,1.79769313486e+308,0.0,0.0,0.0,1.79769313486e+308,0.0,0.0,0.0,0.05,0.0,0.0,0.0,1.79769313486e+308,0.0,0.0,0.0,1.79769313486e+308,0.0,0.0,0.0,0.05,0.0,0.0,0.0,0.0,0.0,0.0,0.0,0.0,0.0,0.0,0.0,0.0
1494449914482846645,283,1494449914535795321,gyro_link,0.0,0.0,0.0,1.0,1.79769313486e+308,0.0,0.0,0.0,1.79769313486e+308,0.0,0.0,0.0,0.05,0.0,0.0,0.0,1.79769313486e+308,0.0,0.0,0.0,1.79769313486e+308,0.0,0.0,0.0,0.05,0.0,0.0,0.0,0.0,0.0,0.0,0.0,0.0,0.0,0.0,0.0,0.0
1494449914501574127,284,1494449914555669279,gyro_link,0.0,0.0,0.0,1.0,1.79769313486e+308,0.0,0.0,0.0,1.79769313486e+308,0.0,0.0,0.0,0.05,0.0,0.0,0.0,1.79769313486e+308,0.0,0.0,0.0,1.79769313486e+308,0.0,0.0,0.0,0.05,0.0,0.0,0.0,0.0,0.0,0.0,0.0,0.0,0.0,0.0,0.0,0.0
1494449914522528784,285,1494449914575713360,gyro_link,0.0,0.0,0.0,1.0,1.79769313486e+308,0.0,0.0,0.0,1.79769313486e+308,0.0,0.0,0.0,0.05,0.0,0.0,0.0,1.79769313486e+308,0.0,0.0,0.0,1.79769313486e+308,0.0,0.0,0.0,0.05,0.0,0.0,0.0,0.0,0.0,0.0,0.0,0.0,0.0,0.0,0.0,0.0
1494449914542982840,286,1494449914596697479,gyro_link,0.0,0.0,0.0,1.0,1.79769313486e+308,0.0,0.0,0.0,1.79769313486e+308,0.0,0.0,0.0,0.05,0.0,0.0,0.0,1.79769313486e+308,0.0,0.0,0.0,1.79769313486e+308,0.0,0.0,0.0,0.05,0.0,0.0,0.0,0.0,0.0,0.0,0.0,0.0,0.0,0.0,0.0,0.0
1494449914562443286,287,1494449914615738232,gyro_link,0.0,0.0,0.0,1.0,1.79769313486e+308,0.0,0.0,0.0,1.79769313486e+308,0.0,0.0,0.0,0.05,0.0,0.0,0.0,1.79769313486e+308,0.0,0.0,0.0,1.79769313486e+308,0.0,0.0,0.0,0.05,0.0,0.0,0.0,0.0,0.0,0.0,0.0,0.0,0.0,0.0,0.0,0.0
1494449914582353148,288,1494449914635662647,gyro_link,0.0,0.0,0.0,1.0,1.79769313486e+308,0.0,0.0,0.0,1.79769313486e+308,0.0,0.0,0.0,0.05,0.0,0.0,0.0,1.79769313486e+308,0.0,0.0,0.0,1.79769313486e+308,0.0,0.0,0.0,0.05,0.0,0.0,0.0,0.0,0.0,0.0,0.0,0.0,0.0,0.0,0.0,0.0
1494449914603596326,289,1494449914656720766,gyro_link,0.0,0.0,0.0,1.0,1.79769313486e+308,0.0,0.0,0.0,1.79769313486e+308,0.0,0.0,0.0,0.05,0.0,0.0,0.0,1.79769313486e+308,0.0,0.0,0.0,1.79769313486e+308,0.0,0.0,0.0,0.05,0.0,0.0,0.0,0.0,0.0,0.0,0.0,0.0,0.0,0.0,0.0,0.0
1494449914623400056,290,1494449914676829889,gyro_link,0.0,0.0,0.0,1.0,1.79769313486e+308,0.0,0.0,0.0,1.79769313486e+308,0.0,0.0,0.0,0.05,0.0,0.0,0.0,1.79769313486e+308,0.0,0.0,0.0,1.79769313486e+308,0.0,0.0,0.0,0.05,0.0,0.0,0.0,0.0,0.0,0.0,0.0,0.0,0.0,0.0,0.0,0.0
1494449914646583511,291,1494449914698257048,gyro_link,0.0,0.0,0.0,1.0,1.79769313486e+308,0.0,0.0,0.0,1.79769313486e+308,0.0,0.0,0.0,0.05,0.0,0.0,0.0,1.79769313486e+308,0.0,0.0,0.0,1.79769313486e+308,0.0,0.0,0.0,0.05,0.0,0.0,0.0,0.0,0.0,0.0,0.0,0.0,0.0,0.0,0.0,0.0
1494449914663992910,292,1494449914717690799,gyro_link,0.0,0.0,0.0,1.0,1.79769313486e+308,0.0,0.0,0.0,1.79769313486e+308,0.0,0.0,0.0,0.05,0.0,0.0,0.0,1.79769313486e+308,0.0,0.0,0.0,1.79769313486e+308,0.0,0.0,0.0,0.05,0.0,0.0,0.0,0.0,0.0,0.0,0.0,0.0,0.0,0.0,0.0,0.0
1494449914684446500,293,1494449914736645843,gyro_link,0.0,0.0,0.0,1.0,1.79769313486e+308,0.0,0.0,0.0,1.79769313486e+308,0.0,0.0,0.0,0.05,0.0,0.0,0.0,1.79769313486e+308,0.0,0.0,0.0,1.79769313486e+308,0.0,0.0,0.0,0.05,0.0,0.0,0.0,0.0,0.0,0.0,0.0,0.0,0.0,0.0,0.0,0.0
1494449914706037174,294,1494449914755664388,gyro_link,0.0,0.0,0.0,1.0,1.79769313486e+308,0.0,0.0,0.0,1.79769313486e+308,0.0,0.0,0.0,0.05,0.0,0.0,0.0,1.79769313486e+308,0.0,0.0,0.0,1.79769313486e+308,0.0,0.0,0.0,0.05,0.0,0.0,0.0,0.0,0.0,0.0,0.0,0.0,0.0,0.0,0.0,0.0
1494449914723941572,295,1494449914776618590,gyro_link,0.0,0.0,0.0,1.0,1.79769313486e+308,0.0,0.0,0.0,1.79769313486e+308,0.0,0.0,0.0,0.05,0.0,0.0,0.0,1.79769313486e+308,0.0,0.0,0.0,1.79769313486e+308,0.0,0.0,0.0,0.05,0.0,0.0,0.0,0.0,0.0,0.0,0.0,0.0,0.0,0.0,0.0,0.0
1494449914742990947,296,1494449914796771005,gyro_link,0.0,0.0,0.0,1.0,1.79769313486e+308,0.0,0.0,0.0,1.79769313486e+308,0.0,0.0,0.0,0.05,0.0,0.0,0.0,1.79769313486e+308,0.0,0.0,0.0,1.79769313486e+308,0.0,0.0,0.0,0.05,0.0,0.0,0.0,0.0,0.0,0.0,0.0,0.0,0.0,0.0,0.0,0.0
1494449914768147779,297,1494449914818183664,gyro_link,0.0,0.0,0.0,1.0,1.79769313486e+308,0.0,0.0,0.0,1.79769313486e+308,0.0,0.0,0.0,0.05,0.0,0.0,0.0,1.79769313486e+308,0.0,0.0,0.0,1.79769313486e+308,0.0,0.0,0.0,0.05,0.0,0.0,0.0,0.0,0.0,0.0,0.0,0.0,0.0,0.0,0.0,0.0
1494449914788098640,298,1494449914839023617,gyro_link,0.0,0.0,0.0,1.0,1.79769313486e+308,0.0,0.0,0.0,1.79769313486e+308,0.0,0.0,0.0,0.05,0.0,0.0,0.0,1.79769313486e+308,0.0,0.0,0.0,1.79769313486e+308,0.0,0.0,0.0,0.05,0.0,0.0,0.0,0.0,0.0,0.0,0.0,0.0,0.0,0.0,0.0,0.0
1494449914806797025,299,1494449914856695917,gyro_link,0.0,0.0,0.0,1.0,1.79769313486e+308,0.0,0.0,0.0,1.79769313486e+308,0.0,0.0,0.0,0.05,0.0,0.0,0.0,1.79769313486e+308,0.0,0.0,0.0,1.79769313486e+308,0.0,0.0,0.0,0.05,0.0,0.0,0.0,0.0,0.0,0.0,0.0,0.0,0.0,0.0,0.0,0.0
1494449914823852136,300,1494449914876540624,gyro_link,0.0,0.0,0.0,1.0,1.79769313486e+308,0.0,0.0,0.0,1.79769313486e+308,0.0,0.0,0.0,0.05,0.0,0.0,0.0,1.79769313486e+308,0.0,0.0,0.0,1.79769313486e+308,0.0,0.0,0.0,0.05,0.0,0.0,0.0,0.0,0.0,0.0,0.0,0.0,0.0,0.0,0.0,0.0
1494449914844811113,301,1494449914896682331,gyro_link,0.0,0.0,0.0,1.0,1.79769313486e+308,0.0,0.0,0.0,1.79769313486e+308,0.0,0.0,0.0,0.05,0.0,0.0,0.0,1.79769313486e+308,0.0,0.0,0.0,1.79769313486e+308,0.0,0.0,0.0,0.05,0.0,0.0,0.0,0.0,0.0,0.0,0.0,0.0,0.0,0.0,0.0,0.0
1494449914865704161,302,1494449914916602079,gyro_link,0.0,0.0,0.0,1.0,1.79769313486e+308,0.0,0.0,0.0,1.79769313486e+308,0.0,0.0,0.0,0.05,0.0,0.0,0.0,1.79769313486e+308,0.0,0.0,0.0,1.79769313486e+308,0.0,0.0,0.0,0.05,0.0,0.0,0.0,0.0,0.0,0.0,0.0,0.0,0.0,0.0,0.0,0.0
1494449914886512565,303,1494449914937734906,gyro_link,0.0,0.0,0.0,1.0,1.79769313486e+308,0.0,0.0,0.0,1.79769313486e+308,0.0,0.0,0.0,0.05,0.0,0.0,0.0,1.79769313486e+308,0.0,0.0,0.0,1.79769313486e+308,0.0,0.0,0.0,0.05,0.0,0.0,0.0,0.0,0.0,0.0,0.0,0.0,0.0,0.0,0.0,0.0
1494449914908949792,304,1494449914957588030,gyro_link,0.0,0.0,0.0,1.0,1.79769313486e+308,0.0,0.0,0.0,1.79769313486e+308,0.0,0.0,0.0,0.05,0.0,0.0,0.0,1.79769313486e+308,0.0,0.0,0.0,1.79769313486e+308,0.0,0.0,0.0,0.05,0.0,0.0,0.0,0.0,0.0,0.0,0.0,0.0,0.0,0.0,0.0,0.0
1494449914923272828,305,1494449914976512700,gyro_link,0.0,0.0,0.0,1.0,1.79769313486e+308,0.0,0.0,0.0,1.79769313486e+308,0.0,0.0,0.0,0.05,0.0,0.0,0.0,1.79769313486e+308,0.0,0.0,0.0,1.79769313486e+308,0.0,0.0,0.0,0.05,0.0,0.0,0.0,0.0,0.0,0.0,0.0,0.0,0.0,0.0,0.0,0.0
1494449914943671942,306,1494449914996531031,gyro_link,0.0,0.0,0.0,1.0,1.79769313486e+308,0.0,0.0,0.0,1.79769313486e+308,0.0,0.0,0.0,0.05,0.0,0.0,0.0,1.79769313486e+308,0.0,0.0,0.0,1.79769313486e+308,0.0,0.0,0.0,0.05,0.0,0.0,0.0,0.0,0.0,0.0,0.0,0.0,0.0,0.0,0.0,0.0
1494449914966171841,307,1494449915017448484,gyro_link,0.0,0.0,0.0,1.0,1.79769313486e+308,0.0,0.0,0.0,1.79769313486e+308,0.0,0.0,0.0,0.05,0.0,0.0,0.0,1.79769313486e+308,0.0,0.0,0.0,1.79769313486e+308,0.0,0.0,0.0,0.05,0.0,0.0,0.0,0.0,0.0,0.0,0.0,0.0,0.0,0.0,0.0,0.0
1494449914983419143,308,1494449915036517236,gyro_link,0.0,0.0,0.0,1.0,1.79769313486e+308,0.0,0.0,0.0,1.79769313486e+308,0.0,0.0,0.0,0.05,0.0,0.0,0.0,1.79769313486e+308,0.0,0.0,0.0,1.79769313486e+308,0.0,0.0,0.0,0.05,0.0,0.0,0.0,0.0,0.0,0.0,0.0,0.0,0.0,0.0,0.0,0.0
1494449915012164300,309,1494449915058809516,gyro_link,0.0,0.0,0.0,1.0,1.79769313486e+308,0.0,0.0,0.0,1.79769313486e+308,0.0,0.0,0.0,0.05,0.0,0.0,0.0,1.79769313486e+308,0.0,0.0,0.0,1.79769313486e+308,0.0,0.0,0.0,0.05,0.0,0.0,0.0,0.0,0.0,0.0,0.0,0.0,0.0,0.0,0.0,0.0
1494449915027295098,310,1494449915077584478,gyro_link,0.0,0.0,0.0,1.0,1.79769313486e+308,0.0,0.0,0.0,1.79769313486e+308,0.0,0.0,0.0,0.05,0.0,0.0,0.0,1.79769313486e+308,0.0,0.0,0.0,1.79769313486e+308,0.0,0.0,0.0,0.05,0.0,0.0,0.0,0.0,0.0,0.0,0.0,0.0,0.0,0.0,0.0,0.0
1494449915043616689,311,1494449915096509273,gyro_link,0.0,0.0,0.0,1.0,1.79769313486e+308,0.0,0.0,0.0,1.79769313486e+308,0.0,0.0,0.0,0.05,0.0,0.0,0.0,1.79769313486e+308,0.0,0.0,0.0,1.79769313486e+308,0.0,0.0,0.0,0.05,0.0,0.0,0.0,0.0,0.0,0.0,0.0,0.0,0.0,0.0,0.0,0.0
1494449915063143011,312,1494449915116397146,gyro_link,0.0,0.0,0.0,1.0,1.79769313486e+308,0.0,0.0,0.0,1.79769313486e+308,0.0,0.0,0.0,0.05,0.0,0.0,0.0,1.79769313486e+308,0.0,0.0,0.0,1.79769313486e+308,0.0,0.0,0.0,0.05,0.0,0.0,0.0,0.0,0.0,0.0,0.0,0.0,0.0,0.0,0.0,0.0
1494449915083062438,313,1494449915136395603,gyro_link,0.0,0.0,0.0,1.0,1.79769313486e+308,0.0,0.0,0.0,1.79769313486e+308,0.0,0.0,0.0,0.05,0.0,0.0,0.0,1.79769313486e+308,0.0,0.0,0.0,1.79769313486e+308,0.0,0.0,0.0,0.05,0.0,0.0,0.0,0.0,0.0,0.0,0.0,0.0,0.0,0.0,0.0,0.0
1494449915106732804,314,1494449915156438059,gyro_link,0.0,0.0,0.0,1.0,1.79769313486e+308,0.0,0.0,0.0,1.79769313486e+308,0.0,0.0,0.0,0.05,0.0,0.0,0.0,1.79769313486e+308,0.0,0.0,0.0,1.79769313486e+308,0.0,0.0,0.0,0.05,0.0,0.0,0.0,0.0,0.0,0.0,0.0,0.0,0.0,0.0,0.0,0.0
1494449915127425619,315,1494449915177936134,gyro_link,0.0,0.0,0.0,1.0,1.79769313486e+308,0.0,0.0,0.0,1.79769313486e+308,0.0,0.0,0.0,0.05,0.0,0.0,0.0,1.79769313486e+308,0.0,0.0,0.0,1.79769313486e+308,0.0,0.0,0.0,0.05,0.0,0.0,0.0,0.0,0.0,0.0,0.0,0.0,0.0,0.0,0.0,0.0
1494449915147053449,316,1494449915197645300,gyro_link,0.0,0.0,0.0,1.0,1.79769313486e+308,0.0,0.0,0.0,1.79769313486e+308,0.0,0.0,0.0,0.05,0.0,0.0,0.0,1.79769313486e+308,0.0,0.0,0.0,1.79769313486e+308,0.0,0.0,0.0,0.05,0.0,0.0,0.0,0.0,0.0,0.0,0.0,0.0,0.0,0.0,0.0,0.0
1494449915165158683,317,1494449915217588299,gyro_link,0.0,0.0,0.0,1.0,1.79769313486e+308,0.0,0.0,0.0,1.79769313486e+308,0.0,0.0,0.0,0.05,0.0,0.0,0.0,1.79769313486e+308,0.0,0.0,0.0,1.79769313486e+308,0.0,0.0,0.0,0.05,0.0,0.0,0.0,0.0,0.0,0.0,0.0,0.0,0.0,0.0,0.0,0.0
1494449915183630203,318,1494449915236627634,gyro_link,0.0,0.0,0.0,1.0,1.79769313486e+308,0.0,0.0,0.0,1.79769313486e+308,0.0,0.0,0.0,0.05,0.0,0.0,0.0,1.79769313486e+308,0.0,0.0,0.0,1.79769313486e+308,0.0,0.0,0.0,0.05,0.0,0.0,0.0,0.0,0.0,0.0,0.0,0.0,0.0,0.0,0.0,0.0
1494449915203119874,319,1494449915256242968,gyro_link,0.0,0.0,0.0,1.0,1.79769313486e+308,0.0,0.0,0.0,1.79769313486e+308,0.0,0.0,0.0,0.05,0.0,0.0,0.0,1.79769313486e+308,0.0,0.0,0.0,1.79769313486e+308,0.0,0.0,0.0,0.05,0.0,0.0,0.0,0.0,0.0,0.0,0.0,0.0,0.0,0.0,0.0,0.0
1494449915223125735,320,1494449915276293132,gyro_link,0.0,0.0,0.0,1.0,1.79769313486e+308,0.0,0.0,0.0,1.79769313486e+308,0.0,0.0,0.0,0.05,0.0,0.0,0.0,1.79769313486e+308,0.0,0.0,0.0,1.79769313486e+308,0.0,0.0,0.0,0.05,0.0,0.0,0.0,0.0,0.0,0.0,0.0,0.0,0.0,0.0,0.0,0.0
1494449915248398344,321,1494449915298315372,gyro_link,0.0,0.0,0.0,1.0,1.79769313486e+308,0.0,0.0,0.0,1.79769313486e+308,0.0,0.0,0.0,0.05,0.0,0.0,0.0,1.79769313486e+308,0.0,0.0,0.0,1.79769313486e+308,0.0,0.0,0.0,0.05,0.0,0.0,0.0,0.0,0.0,0.0,0.0,0.0,0.0,0.0,0.0,0.0
1494449915266589164,322,1494449915317803455,gyro_link,0.0,0.0,0.0,1.0,1.79769313486e+308,0.0,0.0,0.0,1.79769313486e+308,0.0,0.0,0.0,0.05,0.0,0.0,0.0,1.79769313486e+308,0.0,0.0,0.0,1.79769313486e+308,0.0,0.0,0.0,0.05,0.0,0.0,0.0,0.0,0.0,0.0,0.0,0.0,0.0,0.0,0.0,0.0
1494449915286943001,323,1494449915337268206,gyro_link,0.0,0.0,0.0,1.0,1.79769313486e+308,0.0,0.0,0.0,1.79769313486e+308,0.0,0.0,0.0,0.05,0.0,0.0,0.0,1.79769313486e+308,0.0,0.0,0.0,1.79769313486e+308,0.0,0.0,0.0,0.05,0.0,0.0,0.0,0.0,0.0,0.0,0.0,0.0,0.0,0.0,0.0,0.0
1494449915419757582,324,1494449915357968576,gyro_link,0.0,0.0,0.0,1.0,1.79769313486e+308,0.0,0.0,0.0,1.79769313486e+308,0.0,0.0,0.0,0.05,0.0,0.0,0.0,1.79769313486e+308,0.0,0.0,0.0,1.79769313486e+308,0.0,0.0,0.0,0.05,0.0,0.0,0.0,0.0,0.0,0.0,0.0,0.0,0.0,0.0,0.0,0.0
1494449915419774485,325,1494449915379356277,gyro_link,0.0,0.0,0.0,1.0,1.79769313486e+308,0.0,0.0,0.0,1.79769313486e+308,0.0,0.0,0.0,0.05,0.0,0.0,0.0,1.79769313486e+308,0.0,0.0,0.0,1.79769313486e+308,0.0,0.0,0.0,0.05,0.0,0.0,0.0,0.0,0.0,0.0,0.0,0.0,0.0,0.0,0.0,0.0
1494449915419782526,326,1494449915398992193,gyro_link,0.0,0.0,0.0,1.0,1.79769313486e+308,0.0,0.0,0.0,1.79769313486e+308,0.0,0.0,0.0,0.05,0.0,0.0,0.0,1.79769313486e+308,0.0,0.0,0.0,1.79769313486e+308,0.0,0.0,0.0,0.05,0.0,0.0,0.0,0.0,0.0,0.0,0.0,0.0,0.0,0.0,0.0,0.0
1494449915419819136,327,1494449915417953362,gyro_link,0.0,0.0,0.0,1.0,1.79769313486e+308,0.0,0.0,0.0,1.79769313486e+308,0.0,0.0,0.0,0.05,0.0,0.0,0.0,1.79769313486e+308,0.0,0.0,0.0,1.79769313486e+308,0.0,0.0,0.0,0.05,0.0,0.0,0.0,0.0,0.0,0.0,0.0,0.0,0.0,0.0,0.0,0.0
1494449915419825526,328,1494449915438269568,gyro_link,0.0,0.0,0.0,1.0,1.79769313486e+308,0.0,0.0,0.0,1.79769313486e+308,0.0,0.0,0.0,0.05,0.0,0.0,0.0,1.79769313486e+308,0.0,0.0,0.0,1.79769313486e+308,0.0,0.0,0.0,0.05,0.0,0.0,0.0,0.0,0.0,0.0,0.0,0.0,0.0,0.0,0.0,0.0
1494449915423443117,329,1494449915458232358,gyro_link,0.0,0.0,0.0,1.0,1.79769313486e+308,0.0,0.0,0.0,1.79769313486e+308,0.0,0.0,0.0,0.05,0.0,0.0,0.0,1.79769313486e+308,0.0,0.0,0.0,1.79769313486e+308,0.0,0.0,0.0,0.05,0.0,0.0,0.0,0.0,0.0,0.0,0.0,0.0,0.0,0.0,0.0,0.0
1494449915432584084,330,1494449915478346230,gyro_link,0.0,0.0,0.0,1.0,1.79769313486e+308,0.0,0.0,0.0,1.79769313486e+308,0.0,0.0,0.0,0.05,0.0,0.0,0.0,1.79769313486e+308,0.0,0.0,0.0,1.79769313486e+308,0.0,0.0,0.0,0.05,0.0,0.0,0.0,0.0,0.0,0.0,0.0,0.0,0.0,0.0,0.0,0.0
1494449915444566493,331,1494449915498087563,gyro_link,0.0,0.0,0.0,1.0,1.79769313486e+308,0.0,0.0,0.0,1.79769313486e+308,0.0,0.0,0.0,0.05,0.0,0.0,0.0,1.79769313486e+308,0.0,0.0,0.0,1.79769313486e+308,0.0,0.0,0.0,0.05,0.0,0.0,0.0,0.0,0.0,0.0,0.0,0.0,0.0,0.0,0.0,0.0
1494449915463790678,332,1494449915516547109,gyro_link,0.0,0.0,0.0,1.0,1.79769313486e+308,0.0,0.0,0.0,1.79769313486e+308,0.0,0.0,0.0,0.05,0.0,0.0,0.0,1.79769313486e+308,0.0,0.0,0.0,1.79769313486e+308,0.0,0.0,0.0,0.05,0.0,0.0,0.0,0.0,0.0,0.0,0.0,0.0,0.0,0.0,0.0,0.0
1494449915484299911,333,1494449915536475900,gyro_link,0.0,0.0,0.0,1.0,1.79769313486e+308,0.0,0.0,0.0,1.79769313486e+308,0.0,0.0,0.0,0.05,0.0,0.0,0.0,1.79769313486e+308,0.0,0.0,0.0,1.79769313486e+308,0.0,0.0,0.0,0.05,0.0,0.0,0.0,0.0,0.0,0.0,0.0,0.0,0.0,0.0,0.0,0.0
1494449915503936200,334,1494449915556562064,gyro_link,0.0,0.0,0.0,1.0,1.79769313486e+308,0.0,0.0,0.0,1.79769313486e+308,0.0,0.0,0.0,0.05,0.0,0.0,0.0,1.79769313486e+308,0.0,0.0,0.0,1.79769313486e+308,0.0,0.0,0.0,0.05,0.0,0.0,0.0,0.0,0.0,0.0,0.0,0.0,0.0,0.0,0.0,0.0
1494449915523844066,335,1494449915576723687,gyro_link,0.0,0.0,0.0,1.0,1.79769313486e+308,0.0,0.0,0.0,1.79769313486e+308,0.0,0.0,0.0,0.05,0.0,0.0,0.0,1.79769313486e+308,0.0,0.0,0.0,1.79769313486e+308,0.0,0.0,0.0,0.05,0.0,0.0,0.0,0.0,0.0,0.0,0.0,0.0,0.0,0.0,0.0,0.0
1494449915546629324,336,1494449915597896930,gyro_link,0.0,0.0,0.0,1.0,1.79769313486e+308,0.0,0.0,0.0,1.79769313486e+308,0.0,0.0,0.0,0.05,0.0,0.0,0.00157079632679,1.79769313486e+308,0.0,0.0,0.0,1.79769313486e+308,0.0,0.0,0.0,0.05,0.0,0.0,0.0,0.0,0.0,0.0,0.0,0.0,0.0,0.0,0.0,0.0
1494449915564301387,337,1494449915617544429,gyro_link,0.0,0.0,0.0,1.0,1.79769313486e+308,0.0,0.0,0.0,1.79769313486e+308,0.0,0.0,0.0,0.05,0.0,0.0,0.000523598775598,1.79769313486e+308,0.0,0.0,0.0,1.79769313486e+308,0.0,0.0,0.0,0.05,0.0,0.0,0.0,0.0,0.0,0.0,0.0,0.0,0.0,0.0,0.0,0.0
1494449915584232988,338,1494449915637226762,gyro_link,0.0,0.0,0.0,1.0,1.79769313486e+308,0.0,0.0,0.0,1.79769313486e+308,0.0,0.0,0.0,0.05,0.0,0.0,-0.0012217304764,1.79769313486e+308,0.0,0.0,0.0,1.79769313486e+308,0.0,0.0,0.0,0.05,0.0,0.0,0.0,0.0,0.0,0.0,0.0,0.0,0.0,0.0,0.0,0.0
1494449915603051652,339,1494449915657305177,gyro_link,0.0,0.0,0.0,1.0,1.79769313486e+308,0.0,0.0,0.0,1.79769313486e+308,0.0,0.0,0.0,0.05,0.0,0.0,-0.00191986217719,1.79769313486e+308,0.0,0.0,0.0,1.79769313486e+308,0.0,0.0,0.0,0.05,0.0,0.0,0.0,0.0,0.0,0.0,0.0,0.0,0.0,0.0,0.0,0.0
1494449915627038825,340,1494449915677325217,gyro_link,0.0,0.0,0.0,1.0,1.79769313486e+308,0.0,0.0,0.0,1.79769313486e+308,0.0,0.0,0.0,0.05,0.0,0.0,-0.0012217304764,1.79769313486e+308,0.0,0.0,0.0,1.79769313486e+308,0.0,0.0,0.0,0.05,0.0,0.0,0.0,0.0,0.0,0.0,0.0,0.0,0.0,0.0,0.0,0.0
1494449915644993670,341,1494449915697317965,gyro_link,0.0,0.0,0.0,1.0,1.79769313486e+308,0.0,0.0,0.0,1.79769313486e+308,0.0,0.0,0.0,0.05,0.0,0.0,-0.000174532925199,1.79769313486e+308,0.0,0.0,0.0,1.79769313486e+308,0.0,0.0,0.0,0.05,0.0,0.0,0.0,0.0,0.0,0.0,0.0,0.0,0.0,0.0,0.0,0.0
1494449915667853969,342,1494449915718696540,gyro_link,0.0,0.0,0.0,1.0,1.79769313486e+308,0.0,0.0,0.0,1.79769313486e+308,0.0,0.0,0.0,0.05,0.0,0.0,0.0010471975512,1.79769313486e+308,0.0,0.0,0.0,1.79769313486e+308,0.0,0.0,0.0,0.05,0.0,0.0,0.0,0.0,0.0,0.0,0.0,0.0,0.0,0.0,0.0,0.0
1494449915691471972,343,1494449915738230999,gyro_link,0.0,0.0,0.0,1.0,1.79769313486e+308,0.0,0.0,0.0,1.79769313486e+308,0.0,0.0,0.0,0.05,0.0,0.0,-0.00244346095279,1.79769313486e+308,0.0,0.0,0.0,1.79769313486e+308,0.0,0.0,0.0,0.05,0.0,0.0,0.0,0.0,0.0,0.0,0.0,0.0,0.0,0.0,0.0,0.0
1494449915705762399,344,1494449915758467538,gyro_link,0.0,0.0,-0.000261799384808,0.999999965731,1.79769313486e+308,0.0,0.0,0.0,1.79769313486e+308,0.0,0.0,0.0,0.05,0.0,0.0,-0.0303687289847,1.79769313486e+308,0.0,0.0,0.0,1.79769313486e+308,0.0,0.0,0.0,0.05,0.0,0.0,0.0,0.0,0.0,0.0,0.0,0.0,0.0,0.0,0.0,0.0
1494449915729022999,345,1494449915777248500,gyro_link,0.0,0.0,-0.0010471973598,0.999999451689,1.79769313486e+308,0.0,0.0,0.0,1.79769313486e+308,0.0,0.0,0.0,0.05,0.0,0.0,-0.0649262481742,1.79769313486e+308,0.0,0.0,0.0,1.79769313486e+308,0.0,0.0,0.0,0.05,0.0,0.0,0.0,0.0,0.0,0.0,0.0,0.0,0.0,0.0,0.0,0.0
1494449915743913237,346,1494449915797345039,gyro_link,0.0,0.0,-0.00165806202968,0.999998625414,1.79769313486e+308,0.0,0.0,0.0,1.79769313486e+308,0.0,0.0,0.0,0.05,0.0,0.0,-0.0539306738866,1.79769313486e+308,0.0,0.0,0.0,1.79769313486e+308,0.0,0.0,0.0,0.05,0.0,0.0,0.0,0.0,0.0,0.0,0.0,0.0,0.0,0.0,0.0,0.0
1494449915765347841,347,1494449915817298037,gyro_link,0.0,0.0,-0.00200712729215,0.999997985718,1.79769313486e+308,0.0,0.0,0.0,1.79769313486e+308,0.0,0.0,0.0,0.05,0.0,0.0,-0.0300196631343,1.79769313486e+308,0.0,0.0,0.0,1.79769313486e+308,0.0,0.0,0.0,0.05,0.0,0.0,0.0,0.0,0.0,0.0,0.0,0.0,0.0,0.0,0.0,0.0
1494449915788642407,348,1494449915839502485,gyro_link,0.0,0.0,-0.00226892608084,0.999997425984,1.79769313486e+308,0.0,0.0,0.0,1.79769313486e+308,0.0,0.0,0.0,0.05,0.0,0.0,-0.0385717764691,1.79769313486e+308,0.0,0.0,0.0,1.79769313486e+308,0.0,0.0,0.0,0.05,0.0,0.0,0.0,0.0,0.0,0.0,0.0,0.0,0.0,0.0,0.0,0.0
1494449915804433817,349,1494449915857337950,gyro_link,0.0,0.0,-0.00287978928534,0.999995853398,1.79769313486e+308,0.0,0.0,0.0,1.79769313486e+308,0.0,0.0,0.0,0.05,0.0,0.0,-0.0633554518474,1.79769313486e+308,0.0,0.0,0.0,1.79769313486e+308,0.0,0.0,0.0,0.05,0.0,0.0,0.0,0.0,0.0,0.0,0.0,0.0,0.0,0.0,0.0,0.0
1494449915836194930,350,1494449915877332157,gyro_link,0.0,0.0,-0.00349065141522,0.999993907658,1.79769313486e+308,0.0,0.0,0.0,1.79769313486e+308,0.0,0.0,0.0,0.05,0.0,0.0,-0.068242373753,1.79769313486e+308,0.0,0.0,0.0,1.79769313486e+308,0.0,0.0,0.0,0.05,0.0,0.0,0.0,0.0,0.0,0.0,0.0,0.0,0.0,0.0,0.0,0.0
1494449915849024946,351,1494449915897896736,gyro_link,0.0,0.0,-0.00410151224255,0.999991588763,1.79769313486e+308,0.0,0.0,0.0,1.79769313486e+308,0.0,0.0,0.0,0.05,0.0,0.0,-0.0530580092606,1.79769313486e+308,0.0,0.0,0.0,1.79769313486e+308,0.0,0.0,0.0,0.05,0.0,0.0,0.0,0.0,0.0,0.0,0.0,0.0,0.0,0.0,0.0,0.0
1494449915887893975,352,1494449915917275195,gyro_link,0.0,0.0,-0.00453784048118,0.999989703949,1.79769313486e+308,0.0,0.0,0.0,1.79769313486e+308,0.0,0.0,0.0,0.05,0.0,0.0,-0.0469493568786,1.79769313486e+308,0.0,0.0,0.0,1.79769313486e+308,0.0,0.0,0.0,0.05,0.0,0.0,0.0,0.0,0.0,0.0,0.0,0.0,0.0,0.0,0.0,0.0
1494449915887900149,353,1494449915937285360,gyro_link,0.0,0.0,-0.00497416785586,0.999987628751,1.79769313486e+308,0.0,0.0,0.0,1.79769313486e+308,0.0,0.0,0.0,0.05,0.0,0.0,-0.0528834763354,1.79769313486e+308,0.0,0.0,0.0,1.79769313486e+308,0.0,0.0,0.0,0.05,0.0,0.0,0.0,0.0,0.0,0.0,0.0,0.0,0.0,0.0,0.0,0.0
1494449915907501107,354,1494449915957597148,gyro_link,0.0,0.0,-0.00558502457083,0.999984403629,1.79769313486e+308,0.0,0.0,0.0,1.79769313486e+308,0.0,0.0,0.0,0.05,0.0,0.0,-0.056897733615,1.79769313486e+308,0.0,0.0,0.0,1.79769313486e+308,0.0,0.0,0.0,0.05,0.0,0.0,0.0,0.0,0.0,0.0,0.0,0.0,0.0,0.0,0.0,0.0
1494449915934118359,355,1494449915978579017,gyro_link,0.0,0.0,-0.00628314396556,0.999980260856,1.79769313486e+308,0.0,0.0,0.0,1.79769313486e+308,0.0,0.0,0.0,0.05,0.0,0.0,-0.0455530934771,1.79769313486e+308,0.0,0.0,0.0,1.79769313486e+308,0.0,0.0,0.0,0.05,0.0,0.0,0.0,0.0,0.0,0.0,0.0,0.0,0.0,0.0,0.0,0.0
1494449915950622568,356,1494449915997677519,gyro_link,0.0,0.0,-0.00663220253582,0.999978006703,1.79769313486e+308,0.0,0.0,0.0,1.79769313486e+308,0.0,0.0,0.0,0.05,0.0,0.0,-0.0356047167407,1.79769313486e+308,0.0,0.0,0.0,1.79769313486e+308,0.0,0.0,0.0,0.05,0.0,0.0,0.0,0.0,0.0,0.0,0.0,0.0,0.0,0.0,0.0,0.0
1494449915965245112,357,1494449916017732851,gyro_link,0.0,0.0,-0.00698126029796,0.999975630705,1.79769313486e+308,0.0,0.0,0.0,1.79769313486e+308,0.0,0.0,0.0,0.05,0.0,0.0,-0.0357792496659,1.79769313486e+308,0.0,0.0,0.0,1.79769313486e+308,0.0,0.0,0.0,0.05,0.0,0.0,0.0,0.0,0.0,0.0,0.0,0.0,0.0,0.0,0.0,0.0
1494449915983360133,358,1494449916038178347,gyro_link,0.0,0.0,-0.00733031720946,0.999973132864,1.79769313486e+308,0.0,0.0,0.0,1.79769313486e+308,0.0,0.0,0.0,0.05,0.0,0.0,-0.0422369678983,1.79769313486e+308,0.0,0.0,0.0,1.79769313486e+308,0.0,0.0,0.0,0.05,0.0,0.0,0.0,0.0,0.0,0.0,0.0,0.0,0.0,0.0,0.0,0.0
1494449916005598534,359,1494449916058626009,gyro_link,0.0,0.0,-0.00776663708782,0.999969839219,1.79769313486e+308,0.0,0.0,0.0,1.79769313486e+308,0.0,0.0,0.0,0.05,0.0,0.0,-0.0420624349731,1.79769313486e+308,0.0,0.0,0.0,1.79769313486e+308,0.0,0.0,0.0,0.05,0.0,0.0,0.0,0.0,0.0,0.0,0.0,0.0,0.0,0.0,0.0,0.0
1494449916025027107,360,1494449916077817719,gyro_link,0.0,0.0,-0.00811569192986,0.99996706723,1.79769313486e+308,0.0,0.0,0.0,1.79769313486e+308,0.0,0.0,0.0,0.05,0.0,0.0,-0.0373500459927,1.79769313486e+308,0.0,0.0,0.0,1.79769313486e+308,0.0,0.0,0.0,0.05,0.0,0.0,0.0,0.0,0.0,0.0,0.0,0.0,0.0,0.0,0.0,0.0
1494449916044991651,361,1494449916097775884,gyro_link,0.0,0.0,-0.00855200908683,0.999963430902,1.79769313486e+308,0.0,0.0,0.0,1.79769313486e+308,0.0,0.0,0.0,0.05,0.0,0.0,-0.0432841654495,1.79769313486e+308,0.0,0.0,0.0,1.79769313486e+308,0.0,0.0,0.0,0.05,0.0,0.0,0.0,0.0,0.0,0.0,0.0,0.0,0.0,0.0,0.0,0.0
1494449916065084808,362,1494449916117626633,gyro_link,0.0,0.0,-0.00898832461561,0.999959604194,1.79769313486e+308,0.0,0.0,0.0,1.79769313486e+308,0.0,0.0,0.0,0.05,0.0,0.0,-0.0483456202802,1.79769313486e+308,0.0,0.0,0.0,1.79769313486e+308,0.0,0.0,0.0,0.05,0.0,0.0,0.0,0.0,0.0,0.0,0.0,0.0,0.0,0.0,0.0,0.0
1494449916190309691,363,1494449916137758880,gyro_link,0.0,0.0,-0.00951190098399,0.999954760847,1.79769313486e+308,0.0,0.0,0.0,1.79769313486e+308,0.0,0.0,0.0,0.05,0.0,0.0,-0.0539306738866,1.79769313486e+308,0.0,0.0,0.0,1.79769313486e+308,0.0,0.0,0.0,0.05,0.0,0.0,0.0,0.0,0.0,0.0,0.0,0.0,0.0,0.0,0.0,0.0
1494449916190336094,364,1494449916158282001,gyro_link,0.0,0.0,-0.0102099987272,0.999947876605,1.79769313486e+308,0.0,0.0,0.0,1.79769313486e+308,0.0,0.0,0.0,0.05,0.0,0.0,-0.0467748239534,1.79769313486e+308,0.0,0.0,0.0,1.79769313486e+308,0.0,0.0,0.0,0.05,0.0,0.0,0.0,0.0,0.0,0.0,0.0,0.0,0.0,0.0,0.0,0.0
1494449916190344902,365,1494449916177105004,gyro_link,0.0,0.0,-0.0106463073113,0.999943326464,1.79769313486e+308,0.0,0.0,0.0,1.79769313486e+308,0.0,0.0,0.0,0.05,0.0,0.0,-0.0397935069455,1.79769313486e+308,0.0,0.0,0.0,1.79769313486e+308,0.0,0.0,0.0,0.05,0.0,0.0,0.0,0.0,0.0,0.0,0.0,0.0,0.0,0.0,0.0,0.0
1494449916190354764,366,1494449916197102710,gyro_link,0.0,0.0,-0.0109953527232,0.999939549282,1.79769313486e+308,0.0,0.0,0.0,1.79769313486e+308,0.0,0.0,0.0,0.05,0.0,0.0,-0.0331612557879,1.79769313486e+308,0.0,0.0,0.0,1.79769313486e+308,0.0,0.0,0.0,0.05,0.0,0.0,0.0,0.0,0.0,0.0,0.0,0.0,0.0,0.0,0.0,0.0
1494449916190371325,367,1494449916217167624,gyro_link,0.0,0.0,-0.0112571359053,0.999936636438,1.79769313486e+308,0.0,0.0,0.0,1.79769313486e+308,0.0,0.0,0.0,0.05,0.0,0.0,-0.0296705972839,1.79769313486e+308,0.0,0.0,0.0,1.79769313486e+308,0.0,0.0,0.0,0.05,0.0,0.0,0.0,0.0,0.0,0.0,0.0,0.0,0.0,0.0,0.0,0.0
1494449916192040149,368,1494449916237707787,gyro_link,0.0,0.0,-0.0116061789447,0.999932646037,1.79769313486e+308,0.0,0.0,0.0,1.79769313486e+308,0.0,0.0,0.0,0.05,0.0,0.0,-0.0495673507566,1.79769313486e+308,0.0,0.0,0.0,1.79769313486e+308,0.0,0.0,0.0,0.05,0.0,0.0,0.0,0.0,0.0,0.0,0.0,0.0,0.0,0.0,0.0,0.0
1494449916206123020,369,1494449916257604744,gyro_link,0.0,0.0,-0.0130895955713,0.999914327574,1.79769313486e+308,0.0,0.0,0.0,1.79769313486e+308,0.0,0.0,0.0,0.05,0.0,0.0,-0.198967534727,1.79769313486e+308,0.0,0.0,0.0,1.79769313486e+308,0.0,0.0,0.0,0.05,0.0,0.0,0.0,0.0,0.0,0.0,0.0,0.0,0.0,0.0,0.0,0.0
1494449916226427667,370,1494449916277461242,gyro_link,0.0,0.0,-0.0163181042205,0.999866850873,1.79769313486e+308,0.0,0.0,0.0,1.79769313486e+308,0.0,0.0,0.0,0.05,0.0,0.0,-0.378212848907,1.79769313486e+308,0.0,0.0,0.0,1.79769313486e+308,0.0,0.0,0.0,0.05,0.0,0.0,0.0,0.0,0.0,0.0,0.0,0.0,0.0,0.0,0.0,0.0
1494449916244162012,371,1494449916297331366,gyro_link,0.0,0.0,-0.0205061812855,0.999789726157,1.79769313486e+308,0.0,0.0,0.0,1.79769313486e+308,0.0,0.0,0.0,0.05,0.0,0.0,-0.452214809192,1.79769313486e+308,0.0,0.0,0.0,1.79769313486e+308,0.0,0.0,0.0,0.05,0.0,0.0,0.0,0.0,0.0,0.0,0.0,0.0,0.0,0.0,0.0,0.0
1494449916264712252,372,1494449916317307739,gyro_link,0.0,0.0,-0.0249556172556,0.999688560086,1.79769313486e+308,0.0,0.0,0.0,1.79769313486e+308,0.0,0.0,0.0,0.05,0.0,0.0,-0.450993078715,1.79769313486e+308,0.0,0.0,0.0,1.79769313486e+308,0.0,0.0,0.0,0.05,0.0,0.0,0.0,0.0,0.0,0.0,0.0,0.0,0.0,0.0,0.0,0.0
1494449916284289953,373,1494449916337143612,gyro_link,0.0,0.0,-0.0289684124871,0.999580327476,1.79769313486e+308,0.0,0.0,0.0,1.79769313486e+308,0.0,0.0,0.0,0.05,0.0,0.0,-0.413468499797,1.79769313486e+308,0.0,0.0,0.0,1.79769313486e+308,0.0,0.0,0.0,0.05,0.0,0.0,0.0,0.0,0.0,0.0,0.0,0.0,0.0,0.0,0.0,0.0
1494449916304215673,374,1494449916358180856,gyro_link,0.0,0.0,-0.0348122832675,0.999393868769,1.79769313486e+308,0.0,0.0,0.0,1.79769313486e+308,0.0,0.0,0.0,0.05,0.0,0.0,-0.401949326734,1.79769313486e+308,0.0,0.0,0.0,1.79769313486e+308,0.0,0.0,0.0,0.05,0.0,0.0,0.0,0.0,0.0,0.0,0.0,0.0,0.0,0.0,0.0,0.0
1494449916325831131,375,1494449916378475103,gyro_link,0.0,0.0,-0.0383878090875,0.999262916411,1.79769313486e+308,0.0,0.0,0.0,1.79769313486e+308,0.0,0.0,0.0,0.05,0.0,0.0,-0.365646478293,1.79769313486e+308,0.0,0.0,0.0,1.79769313486e+308,0.0,0.0,0.0,0.05,0.0,0.0,0.0,0.0,0.0,0.0,0.0,0.0,0.0,0.0,0.0,0.0
1494449916345717409,376,1494449916398160019,gyro_link,0.0,0.0,-0.0417012732621,0.999130123562,1.79769313486e+308,0.0,0.0,0.0,1.79769313486e+308,0.0,0.0,0.0,0.05,0.0,0.0,-0.340513737064,1.79769313486e+308,0.0,0.0,0.0,1.79769313486e+308,0.0,0.0,0.0,0.05,0.0,0.0,0.0,0.0,0.0,0.0,0.0,0.0,0.0,0.0,0.0,0.0
1494449916364153687,377,1494449916418173892,gyro_link,0.0,0.0,-0.0449271006855,0.998990268033,1.79769313486e+308,0.0,0.0,0.0,1.79769313486e+308,0.0,0.0,0.0,0.05,0.0,0.0,-0.334579617607,1.79769313486e+308,0.0,0.0,0.0,1.79769313486e+308,0.0,0.0,0.0,0.05,0.0,0.0,0.0,0.0,0.0,0.0,0.0,0.0,0.0,0.0,0.0,0.0
1494449916384670786,378,1494449916438030224,gyro_link,0.0,0.0,-0.0481524597204,0.998839997509,1.79769313486e+308,0.0,0.0,0.0,1.79769313486e+308,0.0,0.0,0.0,0.05,0.0,0.0,-0.333532420056,1.79769313486e+308,0.0,0.0,0.0,1.79769313486e+308,0.0,0.0,0.0,0.05,0.0,0.0,0.0,0.0,0.0,0.0,0.0,0.0,0.0,0.0,0.0,0.0
1494449916404203579,379,1494449916457151475,gyro_link,0.0,0.0,-0.0511158613502,0.998692729882,1.79769313486e+308,0.0,0.0,0.0,1.79769313486e+308,0.0,0.0,0.0,0.05,0.0,0.0,-0.312064870257,1.79769313486e+308,0.0,0.0,0.0,1.79769313486e+308,0.0,0.0,0.0,0.05,0.0,0.0,0.0,0.0,0.0,0.0,0.0,0.0,0.0,0.0,0.0,0.0
1494449916428951155,380,1494449916479285964,gyro_link,0.0,0.0,-0.053991674016,0.998541385791,1.79769313486e+308,0.0,0.0,0.0,1.79769313486e+308,0.0,0.0,0.0,0.05,0.0,0.0,-0.286408530252,1.79769313486e+308,0.0,0.0,0.0,1.79769313486e+308,0.0,0.0,0.0,0.05,0.0,0.0,0.0,0.0,0.0,0.0,0.0,0.0,0.0,0.0,0.0,0.0
1494449916444080176,381,1494449916497096097,gyro_link,0.0,0.0,-0.0566056612382,0.998396614135,1.79769313486e+308,0.0,0.0,0.0,1.79769313486e+308,0.0,0.0,0.0,0.05,0.0,0.0,-0.279252680319,1.79769313486e+308,0.0,0.0,0.0,1.79769313486e+308,0.0,0.0,0.0,0.05,0.0,0.0,0.0,0.0,0.0,0.0,0.0,0.0,0.0,0.0,0.0,0.0
1494449916464899243,382,1494449916518008549,gyro_link,0.0,0.0,-0.0593934862086,0.998234648665,1.79769313486e+308,0.0,0.0,0.0,1.79769313486e+308,0.0,0.0,0.0,0.05,0.0,0.0,-0.296880505764,1.79769313486e+308,0.0,0.0,0.0,1.79769313486e+308,0.0,0.0,0.0,0.05,0.0,0.0,0.0,0.0,0.0,0.0,0.0,0.0,0.0,0.0,0.0,0.0
1494449916485308410,383,1494449916538166338,gyro_link,0.0,0.0,-0.064358138139,0.997926866086,1.79769313486e+308,0.0,0.0,0.0,1.79769313486e+308,0.0,0.0,0.0,0.05,0.0,0.0,-0.386241363466,1.79769313486e+308,0.0,0.0,0.0,1.79769313486e+308,0.0,0.0,0.0,0.05,0.0,0.0,0.0,0.0,0.0,0.0,0.0,0.0,0.0,0.0,0.0,0.0
1494449916504512479,384,1494449916558034878,gyro_link,0.0,0.0,-0.0694953096989,0.997582278276,1.79769313486e+308,0.0,0.0,0.0,1.79769313486e+308,0.0,0.0,0.0,0.05,0.0,0.0,-0.602138591938,1.79769313486e+308,0.0,0.0,0.0,1.79769313486e+308,0.0,0.0,0.0,0.05,0.0,0.0,0.0,0.0,0.0,0.0,0.0,0.0,0.0,0.0,0.0,0.0
1494449916527080348,385,1494449916578923206,gyro_link,0.0,0.0,-0.0765450084258,0.997066127037,1.79769313486e+308,0.0,0.0,0.0,1.79769313486e+308,0.0,0.0,0.0,0.05,0.0,0.0,-0.764628745299,1.79769313486e+308,0.0,0.0,0.0,1.79769313486e+308,0.0,0.0,0.0,0.05,0.0,0.0,0.0,0.0,0.0,0.0,0.0,0.0,0.0,0.0,0.0,0.0
1494449916547370727,386,1494449916598008708,gyro_link,0.0,0.0,-0.0840256798546,0.996463589463,1.79769313486e+308,0.0,0.0,0.0,1.79769313486e+308,0.0,0.0,0.0,0.05,0.0,0.0,-0.784525498771,1.79769313486e+308,0.0,0.0,0.0,1.79769313486e+308,0.0,0.0,0.0,0.05,0.0,0.0,0.0,0.0,0.0,0.0,0.0,0.0,0.0,0.0,0.0,0.0
1494449916564669886,387,1494449916618303829,gyro_link,0.0,0.0,-0.091154011602,0.995836806996,1.79769313486e+308,0.0,0.0,0.0,1.79769313486e+308,0.0,0.0,0.0,0.05,0.0,0.0,-0.728325896857,1.79769313486e+308,0.0,0.0,0.0,1.79769313486e+308,0.0,0.0,0.0,0.05,0.0,0.0,0.0,0.0,0.0,0.0,0.0,0.0,0.0,0.0,0.0,0.0
1494449916585105290,388,1494449916638119370,gyro_link,0.0,0.0,-0.097496049413,0.995235911907,1.79769313486e+308,0.0,0.0,0.0,1.79769313486e+308,0.0,0.0,0.0,0.05,0.0,0.0,-0.641583033033,1.79769313486e+308,0.0,0.0,0.0,1.79769313486e+308,0.0,0.0,0.0,0.05,0.0,0.0,0.0,0.0,0.0,0.0,0.0,0.0,0.0,0.0,0.0,0.0
1494449916606560337,389,1494449916658022160,gyro_link,0.0,0.0,-0.10331334785,0.994648858722,1.79769313486e+308,0.0,0.0,0.0,1.79769313486e+308,0.0,0.0,0.0,0.05,0.0,0.0,-0.609818040647,1.79769313486e+308,0.0,0.0,0.0,1.79769313486e+308,0.0,0.0,0.0,0.05,0.0,0.0,0.0,0.0,0.0,0.0,0.0,0.0,0.0,0.0,0.0,0.0
1494449916625360366,390,1494449916679145028,gyro_link,0.0,0.0,-0.108953622218,0.99404683401,1.79769313486e+308,0.0,0.0,0.0,1.79769313486e+308,0.0,0.0,0.0,0.05,0.0,0.0,-0.586605161595,1.79769313486e+308,0.0,0.0,0.0,1.79769313486e+308,0.0,0.0,0.0,0.05,0.0,0.0,0.0,0.0,0.0,0.0,0.0,0.0,0.0,0.0,0.0,0.0
1494449916649770988,391,1494449916699053776,gyro_link,0.0,0.0,-0.114590390988,0.993412825714,1.79769313486e+308,0.0,0.0,0.0,1.79769313486e+308,0.0,0.0,0.0,0.05,0.0,0.0,-0.591317550576,1.79769313486e+308,0.0,0.0,0.0,1.79769313486e+308,0.0,0.0,0.0,0.05,0.0,0.0,0.0,0.0,0.0,0.0,0.0,0.0,0.0,0.0,0.0,0.0
1494449916665812208,392,1494449916718167320,gyro_link,0.0,0.0,-0.120396737979,0.992725856158,1.79769313486e+308,0.0,0.0,0.0,1.79769313486e+308,0.0,0.0,0.0,0.05,0.0,0.0,-0.623431608812,1.79769313486e+308,0.0,0.0,0.0,1.79769313486e+308,0.0,0.0,0.0,0.05,0.0,0.0,0.0,0.0,0.0,0.0,0.0,0.0,0.0,0.0,0.0,0.0
1494449916687709292,393,1494449916740559683,gyro_link,0.0,0.0,-0.12966094377,0.991558389436,1.79769313486e+308,0.0,0.0,0.0,1.79769313486e+308,0.0,0.0,0.0,0.05,0.0,0.0,-0.65624379875,1.79769313486e+308,0.0,0.0,0.0,1.79769313486e+308,0.0,0.0,0.0,0.05,0.0,0.0,0.0,0.0,0.0,0.0,0.0,0.0,0.0,0.0,0.0,0.0
1494449916723198798,394,1494449916758742022,gyro_link,0.0,0.0,-0.135802030977,0.990735993281,1.79769313486e+308,0.0,0.0,0.0,1.79769313486e+308,0.0,0.0,0.0,0.05,0.0,0.0,-0.636172512352,1.79769313486e+308,0.0,0.0,0.0,1.79769313486e+308,0.0,0.0,0.0,0.05,0.0,0.0,0.0,0.0,0.0,0.0,0.0,0.0,0.0,0.0,0.0,0.0
1494449916745583223,395,1494449916777843857,gyro_link,0.0,0.0,-0.141678751163,0.989912688811,1.79769313486e+308,0.0,0.0,0.0,1.79769313486e+308,0.0,0.0,0.0,0.05,0.0,0.0,-0.618719219832,1.79769313486e+308,0.0,0.0,0.0,1.79769313486e+308,0.0,0.0,0.0,0.05,0.0,0.0,0.0,0.0,0.0,0.0,0.0,0.0,0.0,0.0,0.0,0.0
1494449916753529660,396,1494449916798136895,gyro_link,0.0,0.0,-0.147636793048,0.989041645907,1.79769313486e+308,0.0,0.0,0.0,1.79769313486e+308,0.0,0.0,0.0,0.05,0.0,0.0,-0.63041292582,1.79769313486e+308,0.0,0.0,0.0,1.79769313486e+308,0.0,0.0,0.0,0.05,0.0,0.0,0.0,0.0,0.0,0.0,0.0,0.0,0.0,0.0,0.0,0.0
1494449916764885493,397,1494449916818163976,gyro_link,0.0,0.0,-0.153761941775,0.98810792187,1.79769313486e+308,0.0,0.0,0.0,1.79769313486e+308,0.0,0.0,0.0,0.05,0.0,0.0,-0.655196601199,1.79769313486e+308,0.0,0.0,0.0,1.79769313486e+308,0.0,0.0,0.0,0.05,0.0,0.0,0.0,0.0,0.0,0.0,0.0,0.0,0.0,0.0,0.0,0.0
1494449916784943524,398,1494449916838135558,gyro_link,0.0,0.0,-0.160053473036,0.987108345507,1.79769313486e+308,0.0,0.0,0.0,1.79769313486e+308,0.0,0.0,0.0,0.05,0.0,0.0,-0.661654319431,1.79769313486e+308,0.0,0.0,0.0,1.79769313486e+308,0.0,0.0,0.0,0.05,0.0,0.0,0.0,0.0,0.0,0.0,0.0,0.0,0.0,0.0,0.0,0.0
1494449916804186741,399,1494449916857946807,gyro_link,0.0,0.0,-0.166166404934,0.986097726329,1.79769313486e+308,0.0,0.0,0.0,1.79769313486e+308,0.0,0.0,0.0,0.05,0.0,0.0,-0.649960613443,1.79769313486e+308,0.0,0.0,0.0,1.79769313486e+308,0.0,0.0,0.0,0.05,0.0,0.0,0.0,0.0,0.0,0.0,0.0,0.0,0.0,0.0,0.0,0.0
1494449916826387428,400,1494449916878214178,gyro_link,0.0,0.0,-0.172186995403,0.985064281463,1.79769313486e+308,0.0,0.0,0.0,1.79769313486e+308,0.0,0.0,0.0,0.05,0.0,0.0,-0.630238392895,1.79769313486e+308,0.0,0.0,0.0,1.79769313486e+308,0.0,0.0,0.0,0.05,0.0,0.0,0.0,0.0,0.0,0.0,0.0,0.0,0.0,0.0,0.0,0.0
1494449916843948495,401,1494449916898036344,gyro_link,0.0,0.0,-0.177943545474,0.984040697646,1.79769313486e+308,0.0,0.0,0.0,1.79769313486e+308,0.0,0.0,0.0,0.05,0.0,0.0,-0.607374579694,1.79769313486e+308,0.0,0.0,0.0,1.79769313486e+308,0.0,0.0,0.0,0.05,0.0,0.0,0.0,0.0,0.0,0.0,0.0,0.0,0.0,0.0,0.0,0.0
1494449916867249847,402,1494449916919347128,gyro_link,0.0,0.0,-0.186695503109,0.982417828176,1.79769313486e+308,0.0,0.0,0.0,1.79769313486e+308,0.0,0.0,0.0,0.05,0.0,0.0,-0.631809189222,1.79769313486e+308,0.0,0.0,0.0,1.79769313486e+308,0.0,0.0,0.0,0.05,0.0,0.0,0.0,0.0,0.0,0.0,0.0,0.0,0.0,0.0,0.0,0.0
1494449916884287295,403,1494449916938210464,gyro_link,0.0,0.0,-0.193292612524,0.981141154954,1.79769313486e+308,0.0,0.0,0.0,1.79769313486e+308,0.0,0.0,0.0,0.05,0.0,0.0,-0.738623339444,1.79769313486e+308,0.0,0.0,0.0,1.79769313486e+308,0.0,0.0,0.0,0.05,0.0,0.0,0.0,0.0,0.0,0.0,0.0,0.0,0.0,0.0,0.0,0.0
1494449916905827660,404,1494449916958054754,gyro_link,0.0,0.0,-0.201505322326,0.979487419559,1.79769313486e+308,0.0,0.0,0.0,1.79769313486e+308,0.0,0.0,0.0,0.05,0.0,0.0,-0.915425192671,1.79769313486e+308,0.0,0.0,0.0,1.79769313486e+308,0.0,0.0,0.0,0.05,0.0,0.0,0.0,0.0,0.0,0.0,0.0,0.0,0.0,0.0,0.0,0.0
1494449916924023323,405,1494449916977971086,gyro_link,0.0,0.0,-0.210727687671,0.977544802886,1.79769313486e+308,0.0,0.0,0.0,1.79769313486e+308,0.0,0.0,0.0,0.05,0.0,0.0,-0.998677397991,1.79769313486e+308,0.0,0.0,0.0,1.79769313486e+308,0.0,0.0,0.0,0.05,0.0,0.0,0.0,0.0,0.0,0.0,0.0,0.0,0.0,0.0,0.0,0.0
1494449916946151528,406,1494449916997919043,gyro_link,0.0,0.0,-0.220186716747,0.975457743712,1.79769313486e+308,0.0,0.0,0.0,1.79769313486e+308,0.0,0.0,0.0,0.05,0.0,0.0,-1.01508349296,1.79769313486e+308,0.0,0.0,0.0,1.79769313486e+308,0.0,0.0,0.0,0.05,0.0,0.0,0.0,0.0,0.0,0.0,0.0,0.0,0.0,0.0,0.0,0.0
1494449916965745759,407,1494449917018430080,gyro_link,0.0,0.0,-0.22954015041,0.973299193131,1.79769313486e+308,0.0,0.0,0.0,1.79769313486e+308,0.0,0.0,0.0,0.05,0.0,0.0,-0.98890355418,1.79769313486e+308,0.0,0.0,0.0,1.79769313486e+308,0.0,0.0,0.0,0.05,0.0,0.0,0.0,0.0,0.0,0.0,0.0,0.0,0.0,0.0,0.0,0.0
1494449916987219543,408,1494449917038158537,gyro_link,0.0,0.0,-0.238448709217,0.971155092183,1.79769313486e+308,0.0,0.0,0.0,1.79769313486e+308,0.0,0.0,0.0,0.05,0.0,0.0,-0.953473370365,1.79769313486e+308,0.0,0.0,0.0,1.79769313486e+308,0.0,0.0,0.0,0.05,0.0,0.0,0.0,0.0,0.0,0.0,0.0,0.0,0.0,0.0,0.0,0.0
1494449917005013225,409,1494449917058123910,gyro_link,0.0,0.0,-0.247083574357,0.968994172987,1.79769313486e+308,0.0,0.0,0.0,1.79769313486e+308,0.0,0.0,0.0,0.05,0.0,0.0,-0.920312114577,1.79769313486e+308,0.0,0.0,0.0,1.79769313486e+308,0.0,0.0,0.0,0.05,0.0,0.0,0.0,0.0,0.0,0.0,0.0,0.0,0.0,0.0,0.0,0.0
1494449917025414612,410,1494449917078173533,gyro_link,0.0,0.0,-0.255445757936,0.966823388604,1.79769313486e+308,0.0,0.0,0.0,1.79769313486e+308,0.0,0.0,0.0,0.05,0.0,0.0,-0.889768852667,1.79769313486e+308,0.0,0.0,0.0,1.79769313486e+308,0.0,0.0,0.0,0.05,0.0,0.0,0.0,0.0,0.0,0.0,0.0,0.0,0.0,0.0,0.0,0.0
1494449917046005254,411,1494449917098366405,gyro_link,0.0,0.0,-0.263704698919,0.964603458302,1.79769313486e+308,0.0,0.0,0.0,1.79769313486e+308,0.0,0.0,0.0,0.05,0.0,0.0,-0.900240828179,1.79769313486e+308,0.0,0.0,0.0,1.79769313486e+308,0.0,0.0,0.0,0.05,0.0,0.0,0.0,0.0,0.0,0.0,0.0,0.0,0.0,0.0,0.0,0.0
1494449917065293173,412,1494449917118896192,gyro_link,0.0,0.0,-0.276643835392,0.960972522156,1.79769313486e+308,0.0,0.0,0.0,1.79769313486e+308,0.0,0.0,0.0,0.05,0.0,0.0,-0.947364717983,1.79769313486e+308,0.0,0.0,0.0,1.79769313486e+308,0.0,0.0,0.0,0.05,0.0,0.0,0.0,0.0,0.0,0.0,0.0,0.0,0.0,0.0,0.0,0.0
1494449917086306451,413,1494449917139151938,gyro_link,0.0,0.0,-0.285270193117,0.958447138302,1.79769313486e+308,0.0,0.0,0.0,1.79769313486e+308,0.0,0.0,0.0,0.05,0.0,0.0,-0.927991563285,1.79769313486e+308,0.0,0.0,0.0,1.79769313486e+308,0.0,0.0,0.0,0.05,0.0,0.0,0.0,0.0,0.0,0.0,0.0,0.0,0.0,0.0,0.0,0.0
1494449917108401376,414,1494449917159957933,gyro_link,0.0,0.0,-0.293623253878,0.955921223105,1.79769313486e+308,0.0,0.0,0.0,1.79769313486e+308,0.0,0.0,0.0,0.05,0.0,0.0,-0.908618408588,1.79769313486e+308,0.0,0.0,0.0,1.79769313486e+308,0.0,0.0,0.0,0.05,0.0,0.0,0.0,0.0,0.0,0.0,0.0,0.0,0.0,0.0,0.0,0.0
1494449917126893958,415,1494449917179525891,gyro_link,0.0,0.0,-0.302120335658,0.953269795379,1.79769313486e+308,0.0,0.0,0.0,1.79769313486e+308,0.0,0.0,0.0,0.05,0.0,0.0,-0.937765407097,1.79769313486e+308,0.0,0.0,0.0,1.79769313486e+308,0.0,0.0,0.0,0.05,0.0,0.0,0.0,0.0,0.0,0.0,0.0,0.0,0.0,0.0,0.0,0.0
1494449917149153473,416,1494449917199384222,gyro_link,0.0,0.0,-0.310842321189,0.950461493885,1.79769313486e+308,0.0,0.0,0.0,1.79769313486e+308,0.0,0.0,0.0,0.05,0.0,0.0,-0.969530399483,1.79769313486e+308,0.0,0.0,0.0,1.79769313486e+308,0.0,0.0,0.0,0.05,0.0,0.0,0.0,0.0,0.0,0.0,0.0,0.0,0.0,0.0,0.0,0.0
1494449917167388366,417,1494449917218366225,gyro_link,0.0,0.0,-0.319538208527,0.947573392034,1.79769313486e+308,0.0,0.0,0.0,1.79769313486e+308,0.0,0.0,0.0,0.05,0.0,0.0,-0.947015652132,1.79769313486e+308,0.0,0.0,0.0,1.79769313486e+308,0.0,0.0,0.0,0.05,0.0,0.0,0.0,0.0,0.0,0.0,0.0,0.0,0.0,0.0,0.0,0.0
1494449917187160264,418,1494449917238518805,gyro_link,0.0,0.0,-0.327877517976,0.944720240709,1.79769313486e+308,0.0,0.0,0.0,1.79769313486e+308,0.0,0.0,0.0,0.05,0.0,0.0,-0.914901593895,1.79769313486e+308,0.0,0.0,0.0,1.79769313486e+308,0.0,0.0,0.0,0.05,0.0,0.0,0.0,0.0,0.0,0.0,0.0,0.0,0.0,0.0,0.0,0.0
1494449917211756279,419,1494449917260753335,gyro_link,0.0,0.0,-0.33627354213,0.941764357397,1.79769313486e+308,0.0,0.0,0.0,1.79769313486e+308,0.0,0.0,0.0,0.05,0.0,0.0,-0.929213293762,1.79769313486e+308,0.0,0.0,0.0,1.79769313486e+308,0.0,0.0,0.0,0.05,0.0,0.0,0.0,0.0,0.0,0.0,0.0,0.0,0.0,0.0,0.0,0.0
1494449917227985126,420,1494449917279287006,gyro_link,0.0,0.0,-0.344970582103,0.93861349739,1.79769313486e+308,0.0,0.0,0.0,1.79769313486e+308,0.0,0.0,0.0,0.05,0.0,0.0,-0.975115453089,1.79769313486e+308,0.0,0.0,0.0,1.79769313486e+308,0.0,0.0,0.0,0.05,0.0,0.0,0.0,0.0,0.0,0.0,0.0,0.0,0.0,0.0,0.0,0.0
1494449917248500305,421,1494449917299693543,gyro_link,0.0,0.0,-0.357960564137,0.933736705138,1.79769313486e+308,0.0,0.0,0.0,1.79769313486e+308,0.0,0.0,0.0,0.05,0.0,0.0,-0.957138561794,1.79769313486e+308,0.0,0.0,0.0,1.79769313486e+308,0.0,0.0,0.0,0.05,0.0,0.0,0.0,0.0,0.0,0.0,0.0,0.0,0.0,0.0,0.0,0.0
1494449917267811974,422,1494449917318909961,gyro_link,0.0,0.0,-0.366257631418,0.930513485893,1.79769313486e+308,0.0,0.0,0.0,1.79769313486e+308,0.0,0.0,0.0,0.05,0.0,0.0,-0.921533845053,1.79769313486e+308,0.0,0.0,0.0,1.79769313486e+308,0.0,0.0,0.0,0.05,0.0,0.0,0.0,0.0,0.0,0.0,0.0,0.0,0.0,0.0,0.0,0.0
1494449917285936631,423,1494449917338727210,gyro_link,0.0,0.0,-0.374444763601,0.927249221629,1.79769313486e+308,0.0,0.0,0.0,1.79769313486e+308,0.0,0.0,0.0,0.05,0.0,0.0,-0.924675437707,1.79769313486e+308,0.0,0.0,0.0,1.79769313486e+308,0.0,0.0,0.0,0.05,0.0,0.0,0.0,0.0,0.0,0.0,0.0,0.0,0.0,0.0,0.0,0.0
1494449917304818471,424,1494449917358733166,gyro_link,0.0,0.0,-0.382844673933,0.923812727581,1.79769313486e+308,0.0,0.0,0.0,1.79769313486e+308,0.0,0.0,0.0,0.05,0.0,0.0,-0.949110047235,1.79769313486e+308,0.0,0.0,0.0,1.79769313486e+308,0.0,0.0,0.0,0.05,0.0,0.0,0.0,0.0,0.0,0.0,0.0,0.0,0.0,0.0,0.0,0.0
1494449917324622026,425,1494449917378790413,gyro_link,0.0,0.0,-0.391132737294,0.920334277215,1.79769313486e+308,0.0,0.0,0.0,1.79769313486e+308,0.0,0.0,0.0,0.05,0.0,0.0,-0.938463538797,1.79769313486e+308,0.0,0.0,0.0,1.79769313486e+308,0.0,0.0,0.0,0.05,0.0,0.0,0.0,0.0,0.0,0.0,0.0,0.0,0.0,0.0,0.0,0.0
1494449917346281087,426,1494449917399314909,gyro_link,0.0,0.0,-0.399229185776,0.916851164162,1.79769313486e+308,0.0,0.0,0.0,1.79769313486e+308,0.0,0.0,0.0,0.05,0.0,0.0,-0.912981731718,1.79769313486e+308,0.0,0.0,0.0,1.79769313486e+308,0.0,0.0,0.0,0.05,0.0,0.0,0.0,0.0,0.0,0.0,0.0,0.0,0.0,0.0,0.0,0.0
1494449917369111382,427,1494449917419126657,gyro_link,0.0,0.0,-0.407214918582,0.913332365617,1.79769313486e+308,0.0,0.0,0.0,1.79769313486e+308,0.0,0.0,0.0,0.05,0.0,0.0,-0.91472706097,1.79769313486e+308,0.0,0.0,0.0,1.79769313486e+308,0.0,0.0,0.0,0.05,0.0,0.0,0.0,0.0,0.0,0.0,0.0,0.0,0.0,0.0,0.0,0.0
1494449917387132711,428,1494449917439278738,gyro_link,0.0,0.0,-0.415487175664,0.909599036311,1.79769313486e+308,0.0,0.0,0.0,1.79769313486e+308,0.0,0.0,0.0,0.05,0.0,0.0,-0.952949771589,1.79769313486e+308,0.0,0.0,0.0,1.79769313486e+308,0.0,0.0,0.0,0.05,0.0,0.0,0.0,0.0,0.0,0.0,0.0,0.0,0.0,0.0,0.0,0.0
1494449917405091325,429,1494449917458890154,gyro_link,0.0,0.0,-0.423804253448,0.905753804717,1.79769313486e+308,0.0,0.0,0.0,1.79769313486e+308,0.0,0.0,0.0,0.05,0.0,0.0,-0.95870935812,1.79769313486e+308,0.0,0.0,0.0,1.79769313486e+308,0.0,0.0,0.0,0.05,0.0,0.0,0.0,0.0,0.0,0.0,0.0,0.0,0.0,0.0,0.0,0.0
1494449917426903972,430,1494449917480396020,gyro_link,0.0,0.0,-0.436095142692,0.899900564796,1.79769313486e+308,0.0,0.0,0.0,1.79769313486e+308,0.0,0.0,0.0,0.05,0.0,0.0,-0.938987137573,1.79769313486e+308,0.0,0.0,0.0,1.79769313486e+308,0.0,0.0,0.0,0.05,0.0,0.0,0.0,0.0,0.0,0.0,0.0,0.0,0.0,0.0,0.0,0.0
1494449917445752114,431,1494449917498847275,gyro_link,0.0,0.0,-0.444244308887,0.895905683664,1.79769313486e+308,0.0,0.0,0.0,1.79769313486e+308,0.0,0.0,0.0,0.05,0.0,0.0,-0.955916831317,1.79769313486e+308,0.0,0.0,0.0,1.79769313486e+308,0.0,0.0,0.0,0.05,0.0,0.0,0.0,0.0,0.0,0.0,0.0,0.0,0.0,0.0,0.0,0.0
1494449917469314096,432,1494449917519009938,gyro_link,0.0,0.0,-0.452668165852,0.891679051915,1.79769313486e+308,0.0,0.0,0.0,1.79769313486e+308,0.0,0.0,0.0,0.05,0.0,0.0,-0.99326687731,1.79769313486e+308,0.0,0.0,0.0,1.79769313486e+308,0.0,0.0,0.0,0.05,0.0,0.0,0.0,0.0,0.0,0.0,0.0,0.0,0.0,0.0,0.0,0.0
1494449917485683257,433,1494449917538837729,gyro_link,0.0,0.0,-0.461051814212,0.887373216077,1.79769313486e+308,0.0,0.0,0.0,1.79769313486e+308,0.0,0.0,0.0,0.05,0.0,0.0,-0.973544656762,1.79769313486e+308,0.0,0.0,0.0,1.79769313486e+308,0.0,0.0,0.0,0.05,0.0,0.0,0.0,0.0,0.0,0.0,0.0,0.0,0.0,0.0,0.0,0.0
1494449917506130333,434,1494449917558769852,gyro_link,0.0,0.0,-0.468932113235,0.88323421196,1.79769313486e+308,0.0,0.0,0.0,1.79769313486e+308,0.0,0.0,0.0,0.05,0.0,0.0,-0.907745743962,1.79769313486e+308,0.0,0.0,0.0,1.79769313486e+308,0.0,0.0,0.0,0.05,0.0,0.0,0.0,0.0,0.0,0.0,0.0,0.0,0.0,0.0,0.0,0.0
1494449917525833530,435,1494449917578852141,gyro_link,0.0,0.0,-0.475854484226,0.879524024596,1.79769313486e+308,0.0,0.0,0.0,1.79769313486e+308,0.0,0.0,0.0,0.05,0.0,0.0,-0.78312923537,1.79769313486e+308,0.0,0.0,0.0,1.79769313486e+308,0.0,0.0,0.0,0.05,0.0,0.0,0.0,0.0,0.0,0.0,0.0,0.0,0.0,0.0,0.0,0.0
1494449917545005674,436,1494449917598822430,gyro_link,0.0,0.0,-0.481600722397,0.876390748574,1.79769313486e+308,0.0,0.0,0.0,1.79769313486e+308,0.0,0.0,0.0,0.05,0.0,0.0,-0.666366708411,1.79769313486e+308,0.0,0.0,0.0,1.79769313486e+308,0.0,0.0,0.0,0.05,0.0,0.0,0.0,0.0,0.0,0.0,0.0,0.0,0.0,0.0,0.0,0.0
