%time,field.header.seq,field.header.stamp,field.header.frame_id,field.orientation.x,field.orientation.y,field.orientation.z,field.orientation.w,field.orientation_covariance0,field.orientation_covariance1,field.orientation_covariance2,field.orientation_covariance3,field.orientation_covariance4,field.orientation_covariance5,field.orientation_covariance6,field.orientation_covariance7,field.orientation_covariance8,field.angular_velocity.x,field.angular_velocity.y,field.angular_velocity.z,field.angular_velocity_covariance0,field.angular_velocity_covariance1,field.angular_velocity_covariance2,field.angular_velocity_covariance3,field.angular_velocity_covariance4,field.angular_velocity_covariance5,field.angular_velocity_covariance6,field.angular_velocity_covariance7,field.angular_velocity_covariance8,field.linear_acceleration.x,field.linear_acceleration.y,field.linear_acceleration.z,field.linear_acceleration_covariance0,field.linear_acceleration_covariance1,field.linear_acceleration_covariance2,field.linear_acceleration_covariance3,field.linear_acceleration_covariance4,field.linear_acceleration_covariance5,field.linear_acceleration_covariance6,field.linear_acceleration_covariance7,field.linear_acceleration_covariance8
1494527312574292990,0,1494527313022370239,gyro_link,0.0,0.0,0.0,1.0,1.79769313486e+308,0.0,0.0,0.0,1.79769313486e+308,0.0,0.0,0.0,0.05,0.0,0.0,0.0,1.79769313486e+308,0.0,0.0,0.0,1.79769313486e+308,0.0,0.0,0.0,0.05,0.0,0.0,0.0,0.0,0.0,0.0,0.0,0.0,0.0,0.0,0.0,0.0
1494527312574776916,1,1494527313043233350,gyro_link,0.0,0.0,0.0,1.0,1.79769313486e+308,0.0,0.0,0.0,1.79769313486e+308,0.0,0.0,0.0,0.05,0.0,0.0,0.0,1.79769313486e+308,0.0,0.0,0.0,1.79769313486e+308,0.0,0.0,0.0,0.05,0.0,0.0,0.0,0.0,0.0,0.0,0.0,0.0,0.0,0.0,0.0,0.0
1494527312580327029,2,1494527313063531212,gyro_link,0.0,0.0,0.0,1.0,1.79769313486e+308,0.0,0.0,0.0,1.79769313486e+308,0.0,0.0,0.0,0.05,0.0,0.0,0.0,1.79769313486e+308,0.0,0.0,0.0,1.79769313486e+308,0.0,0.0,0.0,0.05,0.0,0.0,0.0,0.0,0.0,0.0,0.0,0.0,0.0,0.0,0.0,0.0
1494527312599711658,3,1494527313083309158,gyro_link,0.0,0.0,0.0,1.0,1.79769313486e+308,0.0,0.0,0.0,1.79769313486e+308,0.0,0.0,0.0,0.05,0.0,0.0,0.0,1.79769313486e+308,0.0,0.0,0.0,1.79769313486e+308,0.0,0.0,0.0,0.05,0.0,0.0,0.0,0.0,0.0,0.0,0.0,0.0,0.0,0.0,0.0,0.0
1494527312618541155,4,1494527313103356063,gyro_link,0.0,0.0,0.0,1.0,1.79769313486e+308,0.0,0.0,0.0,1.79769313486e+308,0.0,0.0,0.0,0.05,0.0,0.0,0.0,1.79769313486e+308,0.0,0.0,0.0,1.79769313486e+308,0.0,0.0,0.0,0.05,0.0,0.0,0.0,0.0,0.0,0.0,0.0,0.0,0.0,0.0,0.0,0.0
1494527312638446781,5,1494527313123245009,gyro_link,0.0,0.0,0.0,1.0,1.79769313486e+308,0.0,0.0,0.0,1.79769313486e+308,0.0,0.0,0.0,0.05,0.0,0.0,0.0,1.79769313486e+308,0.0,0.0,0.0,1.79769313486e+308,0.0,0.0,0.0,0.05,0.0,0.0,0.0,0.0,0.0,0.0,0.0,0.0,0.0,0.0,0.0,0.0
1494527312657117337,6,1494527313142686540,gyro_link,0.0,0.0,0.0,1.0,1.79769313486e+308,0.0,0.0,0.0,1.79769313486e+308,0.0,0.0,0.0,0.05,0.0,0.0,0.0,1.79769313486e+308,0.0,0.0,0.0,1.79769313486e+308,0.0,0.0,0.0,0.05,0.0,0.0,0.0,0.0,0.0,0.0,0.0,0.0,0.0,0.0,0.0,0.0
1494527312679247091,7,1494527313163557192,gyro_link,0.0,0.0,0.0,1.0,1.79769313486e+308,0.0,0.0,0.0,1.79769313486e+308,0.0,0.0,0.0,0.05,0.0,0.0,0.0,1.79769313486e+308,0.0,0.0,0.0,1.79769313486e+308,0.0,0.0,0.0,0.05,0.0,0.0,0.0,0.0,0.0,0.0,0.0,0.0,0.0,0.0,0.0,0.0
1494527312702210276,8,1494527313183444389,gyro_link,0.0,0.0,0.0,1.0,1.79769313486e+308,0.0,0.0,0.0,1.79769313486e+308,0.0,0.0,0.0,0.05,0.0,0.0,0.0,1.79769313486e+308,0.0,0.0,0.0,1.79769313486e+308,0.0,0.0,0.0,0.05,0.0,0.0,0.0,0.0,0.0,0.0,0.0,0.0,0.0,0.0,0.0,0.0
1494527312717741332,9,1494527313203458043,gyro_link,0.0,0.0,0.0,1.0,1.79769313486e+308,0.0,0.0,0.0,1.79769313486e+308,0.0,0.0,0.0,0.05,0.0,0.0,0.0,1.79769313486e+308,0.0,0.0,0.0,1.79769313486e+308,0.0,0.0,0.0,0.05,0.0,0.0,0.0,0.0,0.0,0.0,0.0,0.0,0.0,0.0,0.0,0.0
1494527312738195721,10,1494527313223392323,gyro_link,0.0,0.0,0.0,1.0,1.79769313486e+308,0.0,0.0,0.0,1.79769313486e+308,0.0,0.0,0.0,0.05,0.0,0.0,0.0,1.79769313486e+308,0.0,0.0,0.0,1.79769313486e+308,0.0,0.0,0.0,0.05,0.0,0.0,0.0,0.0,0.0,0.0,0.0,0.0,0.0,0.0,0.0,0.0
1494527312773679741,11,1494527313243304228,gyro_link,0.0,0.0,0.0,1.0,1.79769313486e+308,0.0,0.0,0.0,1.79769313486e+308,0.0,0.0,0.0,0.05,0.0,0.0,0.0,1.79769313486e+308,0.0,0.0,0.0,1.79769313486e+308,0.0,0.0,0.0,0.05,0.0,0.0,0.0,0.0,0.0,0.0,0.0,0.0,0.0,0.0,0.0,0.0
1494527312784280490,12,1494527313263312715,gyro_link,0.0,0.0,0.0,1.0,1.79769313486e+308,0.0,0.0,0.0,1.79769313486e+308,0.0,0.0,0.0,0.05,0.0,0.0,0.0,1.79769313486e+308,0.0,0.0,0.0,1.79769313486e+308,0.0,0.0,0.0,0.05,0.0,0.0,0.0,0.0,0.0,0.0,0.0,0.0,0.0,0.0,0.0,0.0
1494527312797846444,13,1494527313283402745,gyro_link,0.0,0.0,0.0,1.0,1.79769313486e+308,0.0,0.0,0.0,1.79769313486e+308,0.0,0.0,0.0,0.05,0.0,0.0,0.0,1.79769313486e+308,0.0,0.0,0.0,1.79769313486e+308,0.0,0.0,0.0,0.05,0.0,0.0,0.0,0.0,0.0,0.0,0.0,0.0,0.0,0.0,0.0,0.0
1494527312817906974,14,1494527313303291025,gyro_link,0.0,0.0,0.0,1.0,1.79769313486e+308,0.0,0.0,0.0,1.79769313486e+308,0.0,0.0,0.0,0.05,0.0,0.0,0.0,1.79769313486e+308,0.0,0.0,0.0,1.79769313486e+308,0.0,0.0,0.0,0.05,0.0,0.0,0.0,0.0,0.0,0.0,0.0,0.0,0.0,0.0,0.0,0.0
1494527312841171484,15,1494527313324140593,gyro_link,0.0,0.0,0.0,1.0,1.79769313486e+308,0.0,0.0,0.0,1.79769313486e+308,0.0,0.0,0.0,0.05,0.0,0.0,0.0,1.79769313486e+308,0.0,0.0,0.0,1.79769313486e+308,0.0,0.0,0.0,0.05,0.0,0.0,0.0,0.0,0.0,0.0,0.0,0.0,0.0,0.0,0.0,0.0
1494527312857913338,16,1494527313343241584,gyro_link,0.0,0.0,0.0,1.0,1.79769313486e+308,0.0,0.0,0.0,1.79769313486e+308,0.0,0.0,0.0,0.05,0.0,0.0,0.0,1.79769313486e+308,0.0,0.0,0.0,1.79769313486e+308,0.0,0.0,0.0,0.05,0.0,0.0,0.0,0.0,0.0,0.0,0.0,0.0,0.0,0.0,0.0,0.0
1494527312877782792,17,1494527313363423821,gyro_link,0.0,0.0,0.0,1.0,1.79769313486e+308,0.0,0.0,0.0,1.79769313486e+308,0.0,0.0,0.0,0.05,0.0,0.0,0.0,1.79769313486e+308,0.0,0.0,0.0,1.79769313486e+308,0.0,0.0,0.0,0.05,0.0,0.0,0.0,0.0,0.0,0.0,0.0,0.0,0.0,0.0,0.0,0.0
1494527312899376616,18,1494527313383313059,gyro_link,0.0,0.0,0.0,1.0,1.79769313486e+308,0.0,0.0,0.0,1.79769313486e+308,0.0,0.0,0.0,0.05,0.0,0.0,0.0,1.79769313486e+308,0.0,0.0,0.0,1.79769313486e+308,0.0,0.0,0.0,0.05,0.0,0.0,0.0,0.0,0.0,0.0,0.0,0.0,0.0,0.0,0.0,0.0
1494527312919543568,19,1494527313403643671,gyro_link,0.0,0.0,0.0,1.0,1.79769313486e+308,0.0,0.0,0.0,1.79769313486e+308,0.0,0.0,0.0,0.05,0.0,0.0,0.0,1.79769313486e+308,0.0,0.0,0.0,1.79769313486e+308,0.0,0.0,0.0,0.05,0.0,0.0,0.0,0.0,0.0,0.0,0.0,0.0,0.0,0.0,0.0,0.0
1494527312940393347,20,1494527313424437657,gyro_link,0.0,0.0,0.0,1.0,1.79769313486e+308,0.0,0.0,0.0,1.79769313486e+308,0.0,0.0,0.0,0.05,0.0,0.0,0.0,1.79769313486e+308,0.0,0.0,0.0,1.79769313486e+308,0.0,0.0,0.0,0.05,0.0,0.0,0.0,0.0,0.0,0.0,0.0,0.0,0.0,0.0,0.0,0.0
1494527312958404686,21,1494527313443363356,gyro_link,0.0,0.0,0.0,1.0,1.79769313486e+308,0.0,0.0,0.0,1.79769313486e+308,0.0,0.0,0.0,0.05,0.0,0.0,0.0,1.79769313486e+308,0.0,0.0,0.0,1.79769313486e+308,0.0,0.0,0.0,0.05,0.0,0.0,0.0,0.0,0.0,0.0,0.0,0.0,0.0,0.0,0.0,0.0
1494527312978266325,22,1494527313463270094,gyro_link,0.0,0.0,0.0,1.0,1.79769313486e+308,0.0,0.0,0.0,1.79769313486e+308,0.0,0.0,0.0,0.05,0.0,0.0,0.0,1.79769313486e+308,0.0,0.0,0.0,1.79769313486e+308,0.0,0.0,0.0,0.05,0.0,0.0,0.0,0.0,0.0,0.0,0.0,0.0,0.0,0.0,0.0,0.0
1494527313010882069,23,1494527313483354248,gyro_link,0.0,0.0,0.0,1.0,1.79769313486e+308,0.0,0.0,0.0,1.79769313486e+308,0.0,0.0,0.0,0.05,0.0,0.0,0.0,1.79769313486e+308,0.0,0.0,0.0,1.79769313486e+308,0.0,0.0,0.0,0.05,0.0,0.0,0.0,0.0,0.0,0.0,0.0,0.0,0.0,0.0,0.0,0.0
1494527313019080369,24,1494527313503203070,gyro_link,0.0,0.0,0.0,1.0,1.79769313486e+308,0.0,0.0,0.0,1.79769313486e+308,0.0,0.0,0.0,0.05,0.0,0.0,0.0,1.79769313486e+308,0.0,0.0,0.0,1.79769313486e+308,0.0,0.0,0.0,0.05,0.0,0.0,0.0,0.0,0.0,0.0,0.0,0.0,0.0,0.0,0.0,0.0
1494527313039028646,25,1494527313523337599,gyro_link,0.0,0.0,0.0,1.0,1.79769313486e+308,0.0,0.0,0.0,1.79769313486e+308,0.0,0.0,0.0,0.05,0.0,0.0,0.0,1.79769313486e+308,0.0,0.0,0.0,1.79769313486e+308,0.0,0.0,0.0,0.05,0.0,0.0,0.0,0.0,0.0,0.0,0.0,0.0,0.0,0.0,0.0,0.0
1494527313063703104,26,1494527313545251290,gyro_link,0.0,0.0,0.0,1.0,1.79769313486e+308,0.0,0.0,0.0,1.79769313486e+308,0.0,0.0,0.0,0.05,0.0,0.0,0.0,1.79769313486e+308,0.0,0.0,0.0,1.79769313486e+308,0.0,0.0,0.0,0.05,0.0,0.0,0.0,0.0,0.0,0.0,0.0,0.0,0.0,0.0,0.0,0.0
1494527313080577099,27,1494527313564172739,gyro_link,0.0,0.0,0.0,1.0,1.79769313486e+308,0.0,0.0,0.0,1.79769313486e+308,0.0,0.0,0.0,0.05,0.0,0.0,0.0,1.79769313486e+308,0.0,0.0,0.0,1.79769313486e+308,0.0,0.0,0.0,0.05,0.0,0.0,0.0,0.0,0.0,0.0,0.0,0.0,0.0,0.0,0.0,0.0
1494527313101006417,28,1494527313584272935,gyro_link,0.0,0.0,0.0,1.0,1.79769313486e+308,0.0,0.0,0.0,1.79769313486e+308,0.0,0.0,0.0,0.05,0.0,0.0,0.0,1.79769313486e+308,0.0,0.0,0.0,1.79769313486e+308,0.0,0.0,0.0,0.05,0.0,0.0,0.0,0.0,0.0,0.0,0.0,0.0,0.0,0.0,0.0,0.0
1494527313122203697,29,1494527313604116256,gyro_link,0.0,0.0,0.0,1.0,1.79769313486e+308,0.0,0.0,0.0,1.79769313486e+308,0.0,0.0,0.0,0.05,0.0,0.0,0.0,1.79769313486e+308,0.0,0.0,0.0,1.79769313486e+308,0.0,0.0,0.0,0.05,0.0,0.0,0.0,0.0,0.0,0.0,0.0,0.0,0.0,0.0,0.0,0.0
1494527313145482380,30,1494527313626399488,gyro_link,0.0,0.0,0.0,1.0,1.79769313486e+308,0.0,0.0,0.0,1.79769313486e+308,0.0,0.0,0.0,0.05,0.0,0.0,0.0,1.79769313486e+308,0.0,0.0,0.0,1.79769313486e+308,0.0,0.0,0.0,0.05,0.0,0.0,0.0,0.0,0.0,0.0,0.0,0.0,0.0,0.0,0.0,0.0
1494527313163587726,31,1494527313645532895,gyro_link,0.0,0.0,0.0,1.0,1.79769313486e+308,0.0,0.0,0.0,1.79769313486e+308,0.0,0.0,0.0,0.05,0.0,0.0,0.0,1.79769313486e+308,0.0,0.0,0.0,1.79769313486e+308,0.0,0.0,0.0,0.05,0.0,0.0,0.0,0.0,0.0,0.0,0.0,0.0,0.0,0.0,0.0,0.0
1494527313183389393,32,1494527313665878257,gyro_link,0.0,0.0,0.0,1.0,1.79769313486e+308,0.0,0.0,0.0,1.79769313486e+308,0.0,0.0,0.0,0.05,0.0,0.0,0.0,1.79769313486e+308,0.0,0.0,0.0,1.79769313486e+308,0.0,0.0,0.0,0.05,0.0,0.0,0.0,0.0,0.0,0.0,0.0,0.0,0.0,0.0,0.0,0.0
1494527313204942700,33,1494527313685906869,gyro_link,0.0,0.0,0.0,1.0,1.79769313486e+308,0.0,0.0,0.0,1.79769313486e+308,0.0,0.0,0.0,0.05,0.0,0.0,0.0,1.79769313486e+308,0.0,0.0,0.0,1.79769313486e+308,0.0,0.0,0.0,0.05,0.0,0.0,0.0,0.0,0.0,0.0,0.0,0.0,0.0,0.0,0.0,0.0
1494527313220357546,34,1494527313705215817,gyro_link,0.0,0.0,0.0,1.0,1.79769313486e+308,0.0,0.0,0.0,1.79769313486e+308,0.0,0.0,0.0,0.05,0.0,0.0,0.0,1.79769313486e+308,0.0,0.0,0.0,1.79769313486e+308,0.0,0.0,0.0,0.05,0.0,0.0,0.0,0.0,0.0,0.0,0.0,0.0,0.0,0.0,0.0,0.0
1494527313242878493,35,1494527313725673596,gyro_link,0.0,0.0,0.0,1.0,1.79769313486e+308,0.0,0.0,0.0,1.79769313486e+308,0.0,0.0,0.0,0.05,0.0,0.0,0.0,1.79769313486e+308,0.0,0.0,0.0,1.79769313486e+308,0.0,0.0,0.0,0.05,0.0,0.0,0.0,0.0,0.0,0.0,0.0,0.0,0.0,0.0,0.0,0.0
1494527313261548246,36,1494527313743422089,gyro_link,0.0,0.0,0.0,1.0,1.79769313486e+308,0.0,0.0,0.0,1.79769313486e+308,0.0,0.0,0.0,0.05,0.0,0.0,0.0,1.79769313486e+308,0.0,0.0,0.0,1.79769313486e+308,0.0,0.0,0.0,0.05,0.0,0.0,0.0,0.0,0.0,0.0,0.0,0.0,0.0,0.0,0.0,0.0
1494527313282729106,37,1494527313763386994,gyro_link,0.0,0.0,0.0,1.0,1.79769313486e+308,0.0,0.0,0.0,1.79769313486e+308,0.0,0.0,0.0,0.05,0.0,0.0,0.0,1.79769313486e+308,0.0,0.0,0.0,1.79769313486e+308,0.0,0.0,0.0,0.05,0.0,0.0,0.0,0.0,0.0,0.0,0.0,0.0,0.0,0.0,0.0,0.0
1494527313299052041,38,1494527313783544065,gyro_link,0.0,0.0,0.0,1.0,1.79769313486e+308,0.0,0.0,0.0,1.79769313486e+308,0.0,0.0,0.0,0.05,0.0,0.0,0.0,1.79769313486e+308,0.0,0.0,0.0,1.79769313486e+308,0.0,0.0,0.0,0.05,0.0,0.0,0.0,0.0,0.0,0.0,0.0,0.0,0.0,0.0,0.0,0.0
1494527313322137958,39,1494527313804378884,gyro_link,0.0,0.0,0.0,1.0,1.79769313486e+308,0.0,0.0,0.0,1.79769313486e+308,0.0,0.0,0.0,0.05,0.0,0.0,0.0,1.79769313486e+308,0.0,0.0,0.0,1.79769313486e+308,0.0,0.0,0.0,0.05,0.0,0.0,0.0,0.0,0.0,0.0,0.0,0.0,0.0,0.0,0.0,0.0
1494527313341010890,40,1494527313824217414,gyro_link,0.0,0.0,0.0,1.0,1.79769313486e+308,0.0,0.0,0.0,1.79769313486e+308,0.0,0.0,0.0,0.05,0.0,0.0,0.0,1.79769313486e+308,0.0,0.0,0.0,1.79769313486e+308,0.0,0.0,0.0,0.05,0.0,0.0,0.0,0.0,0.0,0.0,0.0,0.0,0.0,0.0,0.0,0.0
1494527313359829046,41,1494527313844182443,gyro_link,0.0,0.0,0.0,1.0,1.79769313486e+308,0.0,0.0,0.0,1.79769313486e+308,0.0,0.0,0.0,0.05,0.0,0.0,0.0,1.79769313486e+308,0.0,0.0,0.0,1.79769313486e+308,0.0,0.0,0.0,0.05,0.0,0.0,0.0,0.0,0.0,0.0,0.0,0.0,0.0,0.0,0.0,0.0
1494527313399172874,42,1494527313864114889,gyro_link,0.0,0.0,0.0,1.0,1.79769313486e+308,0.0,0.0,0.0,1.79769313486e+308,0.0,0.0,0.0,0.05,0.0,0.0,0.0,1.79769313486e+308,0.0,0.0,0.0,1.79769313486e+308,0.0,0.0,0.0,0.05,0.0,0.0,0.0,0.0,0.0,0.0,0.0,0.0,0.0,0.0,0.0,0.0
1494527313402267244,43,1494527313884112961,gyro_link,0.0,0.0,0.0,1.0,1.79769313486e+308,0.0,0.0,0.0,1.79769313486e+308,0.0,0.0,0.0,0.05,0.0,0.0,0.0,1.79769313486e+308,0.0,0.0,0.0,1.79769313486e+308,0.0,0.0,0.0,0.05,0.0,0.0,0.0,0.0,0.0,0.0,0.0,0.0,0.0,0.0,0.0,0.0
1494527313419048947,44,1494527313904230073,gyro_link,0.0,0.0,0.0,1.0,1.79769313486e+308,0.0,0.0,0.0,1.79769313486e+308,0.0,0.0,0.0,0.05,0.0,0.0,0.0,1.79769313486e+308,0.0,0.0,0.0,1.79769313486e+308,0.0,0.0,0.0,0.05,0.0,0.0,0.0,0.0,0.0,0.0,0.0,0.0,0.0,0.0,0.0,0.0
1494527313438706899,45,1494527313924115853,gyro_link,0.0,0.0,0.0,1.0,1.79769313486e+308,0.0,0.0,0.0,1.79769313486e+308,0.0,0.0,0.0,0.05,0.0,0.0,0.0,1.79769313486e+308,0.0,0.0,0.0,1.79769313486e+308,0.0,0.0,0.0,0.05,0.0,0.0,0.0,0.0,0.0,0.0,0.0,0.0,0.0,0.0,0.0,0.0
1494527313460666800,46,1494527313944241840,gyro_link,0.0,0.0,0.0,1.0,1.79769313486e+308,0.0,0.0,0.0,1.79769313486e+308,0.0,0.0,0.0,0.05,0.0,0.0,0.0,1.79769313486e+308,0.0,0.0,0.0,1.79769313486e+308,0.0,0.0,0.0,0.05,0.0,0.0,0.0,0.0,0.0,0.0,0.0,0.0,0.0,0.0,0.0,0.0
1494527313480365297,47,1494527313964285411,gyro_link,0.0,0.0,0.0,1.0,1.79769313486e+308,0.0,0.0,0.0,1.79769313486e+308,0.0,0.0,0.0,0.05,0.0,0.0,0.0,1.79769313486e+308,0.0,0.0,0.0,1.79769313486e+308,0.0,0.0,0.0,0.05,0.0,0.0,0.0,0.0,0.0,0.0,0.0,0.0,0.0,0.0,0.0,0.0
1494527313500417367,48,1494527313985175022,gyro_link,0.0,0.0,0.0,1.0,1.79769313486e+308,0.0,0.0,0.0,1.79769313486e+308,0.0,0.0,0.0,0.05,0.0,0.0,0.0,1.79769313486e+308,0.0,0.0,0.0,1.79769313486e+308,0.0,0.0,0.0,0.05,0.0,0.0,0.0,0.0,0.0,0.0,0.0,0.0,0.0,0.0,0.0,0.0
1494527313521392829,49,1494527314004238346,gyro_link,0.0,0.0,0.0,1.0,1.79769313486e+308,0.0,0.0,0.0,1.79769313486e+308,0.0,0.0,0.0,0.05,0.0,0.0,0.0,1.79769313486e+308,0.0,0.0,0.0,1.79769313486e+308,0.0,0.0,0.0,0.05,0.0,0.0,0.0,0.0,0.0,0.0,0.0,0.0,0.0,0.0,0.0,0.0
1494527313540194981,50,1494527314025245997,gyro_link,0.0,0.0,0.0,1.0,1.79769313486e+308,0.0,0.0,0.0,1.79769313486e+308,0.0,0.0,0.0,0.05,0.0,0.0,0.0,1.79769313486e+308,0.0,0.0,0.0,1.79769313486e+308,0.0,0.0,0.0,0.05,0.0,0.0,0.0,0.0,0.0,0.0,0.0,0.0,0.0,0.0,0.0,0.0
1494527313558847215,51,1494527314044150528,gyro_link,0.0,0.0,0.0,1.0,1.79769313486e+308,0.0,0.0,0.0,1.79769313486e+308,0.0,0.0,0.0,0.05,0.0,0.0,0.0,1.79769313486e+308,0.0,0.0,0.0,1.79769313486e+308,0.0,0.0,0.0,0.05,0.0,0.0,0.0,0.0,0.0,0.0,0.0,0.0,0.0,0.0,0.0,0.0
1494527313580302462,52,1494527314064502014,gyro_link,0.0,0.0,0.0,1.0,1.79769313486e+308,0.0,0.0,0.0,1.79769313486e+308,0.0,0.0,0.0,0.05,0.0,0.0,0.0,1.79769313486e+308,0.0,0.0,0.0,1.79769313486e+308,0.0,0.0,0.0,0.05,0.0,0.0,0.0,0.0,0.0,0.0,0.0,0.0,0.0,0.0,0.0,0.0
1494527313598695383,53,1494527314084146003,gyro_link,0.0,0.0,0.0,1.0,1.79769313486e+308,0.0,0.0,0.0,1.79769313486e+308,0.0,0.0,0.0,0.05,0.0,0.0,0.0,1.79769313486e+308,0.0,0.0,0.0,1.79769313486e+308,0.0,0.0,0.0,0.05,0.0,0.0,0.0,0.0,0.0,0.0,0.0,0.0,0.0,0.0,0.0,0.0
1494527313624237546,54,1494527314104313073,gyro_link,0.0,0.0,0.0,1.0,1.79769313486e+308,0.0,0.0,0.0,1.79769313486e+308,0.0,0.0,0.0,0.05,0.0,0.0,0.0,1.79769313486e+308,0.0,0.0,0.0,1.79769313486e+308,0.0,0.0,0.0,0.05,0.0,0.0,0.0,0.0,0.0,0.0,0.0,0.0,0.0,0.0,0.0,0.0
1494527313639694237,55,1494527314124240185,gyro_link,0.0,0.0,0.0,1.0,1.79769313486e+308,0.0,0.0,0.0,1.79769313486e+308,0.0,0.0,0.0,0.05,0.0,0.0,0.0,1.79769313486e+308,0.0,0.0,0.0,1.79769313486e+308,0.0,0.0,0.0,0.05,0.0,0.0,0.0,0.0,0.0,0.0,0.0,0.0,0.0,0.0,0.0,0.0
1494527313661000121,56,1494527314144594588,gyro_link,0.0,0.0,0.0,1.0,1.79769313486e+308,0.0,0.0,0.0,1.79769313486e+308,0.0,0.0,0.0,0.05,0.0,0.0,0.0,1.79769313486e+308,0.0,0.0,0.0,1.79769313486e+308,0.0,0.0,0.0,0.05,0.0,0.0,0.0,0.0,0.0,0.0,0.0,0.0,0.0,0.0,0.0,0.0
1494527313679602377,57,1494527314164372159,gyro_link,0.0,0.0,0.0,1.0,1.79769313486e+308,0.0,0.0,0.0,1.79769313486e+308,0.0,0.0,0.0,0.05,0.0,0.0,0.0,1.79769313486e+308,0.0,0.0,0.0,1.79769313486e+308,0.0,0.0,0.0,0.05,0.0,0.0,0.0,0.0,0.0,0.0,0.0,0.0,0.0,0.0,0.0,0.0
1494527313700954521,58,1494527314185600142,gyro_link,0.0,0.0,0.0,1.0,1.79769313486e+308,0.0,0.0,0.0,1.79769313486e+308,0.0,0.0,0.0,0.05,0.0,0.0,0.0,1.79769313486e+308,0.0,0.0,0.0,1.79769313486e+308,0.0,0.0,0.0,0.05,0.0,0.0,0.0,0.0,0.0,0.0,0.0,0.0,0.0,0.0,0.0,0.0
1494527313718451667,59,1494527314204224842,gyro_link,0.0,0.0,0.0,1.0,1.79769313486e+308,0.0,0.0,0.0,1.79769313486e+308,0.0,0.0,0.0,0.05,0.0,0.0,0.0,1.79769313486e+308,0.0,0.0,0.0,1.79769313486e+308,0.0,0.0,0.0,0.05,0.0,0.0,0.0,0.0,0.0,0.0,0.0,0.0,0.0,0.0,0.0,0.0
1494527313739742515,60,1494527314225095243,gyro_link,0.0,0.0,0.0,1.0,1.79769313486e+308,0.0,0.0,0.0,1.79769313486e+308,0.0,0.0,0.0,0.05,0.0,0.0,0.0,1.79769313486e+308,0.0,0.0,0.0,1.79769313486e+308,0.0,0.0,0.0,0.05,0.0,0.0,0.0,0.0,0.0,0.0,0.0,0.0,0.0,0.0,0.0,0.0
1494527313760280709,61,1494527314244422649,gyro_link,0.0,0.0,0.0,1.0,1.79769313486e+308,0.0,0.0,0.0,1.79769313486e+308,0.0,0.0,0.0,0.05,0.0,0.0,0.0,1.79769313486e+308,0.0,0.0,0.0,1.79769313486e+308,0.0,0.0,0.0,0.05,0.0,0.0,0.0,0.0,0.0,0.0,0.0,0.0,0.0,0.0,0.0,0.0
1494527313779650523,62,1494527314264527010,gyro_link,0.0,0.0,0.0,1.0,1.79769313486e+308,0.0,0.0,0.0,1.79769313486e+308,0.0,0.0,0.0,0.05,0.0,0.0,0.0,1.79769313486e+308,0.0,0.0,0.0,1.79769313486e+308,0.0,0.0,0.0,0.05,0.0,0.0,0.0,0.0,0.0,0.0,0.0,0.0,0.0,0.0,0.0,0.0
1494527313798329382,63,1494527314284121124,gyro_link,0.0,0.0,0.0,1.0,1.79769313486e+308,0.0,0.0,0.0,1.79769313486e+308,0.0,0.0,0.0,0.05,0.0,0.0,0.0,1.79769313486e+308,0.0,0.0,0.0,1.79769313486e+308,0.0,0.0,0.0,0.05,0.0,0.0,0.0,0.0,0.0,0.0,0.0,0.0,0.0,0.0,0.0,0.0
1494527313818783762,64,1494527314303998944,gyro_link,0.0,0.0,0.0,1.0,1.79769313486e+308,0.0,0.0,0.0,1.79769313486e+308,0.0,0.0,0.0,0.05,0.0,0.0,0.0,1.79769313486e+308,0.0,0.0,0.0,1.79769313486e+308,0.0,0.0,0.0,0.05,0.0,0.0,0.0,0.0,0.0,0.0,0.0,0.0,0.0,0.0,0.0,0.0
1494527313837893819,65,1494527314323990307,gyro_link,0.0,0.0,0.0,1.0,1.79769313486e+308,0.0,0.0,0.0,1.79769313486e+308,0.0,0.0,0.0,0.05,0.0,0.0,0.0,1.79769313486e+308,0.0,0.0,0.0,1.79769313486e+308,0.0,0.0,0.0,0.05,0.0,0.0,0.0,0.0,0.0,0.0,0.0,0.0,0.0,0.0,0.0,0.0
1494527313858259606,66,1494527314343965544,gyro_link,0.0,0.0,0.0,1.0,1.79769313486e+308,0.0,0.0,0.0,1.79769313486e+308,0.0,0.0,0.0,0.05,0.0,0.0,0.0,1.79769313486e+308,0.0,0.0,0.0,1.79769313486e+308,0.0,0.0,0.0,0.05,0.0,0.0,0.0,0.0,0.0,0.0,0.0,0.0,0.0,0.0,0.0,0.0
1494527313886782118,67,1494527314366184816,gyro_link,0.0,0.0,0.0,1.0,1.79769313486e+308,0.0,0.0,0.0,1.79769313486e+308,0.0,0.0,0.0,0.05,0.0,0.0,0.0,1.79769313486e+308,0.0,0.0,0.0,1.79769313486e+308,0.0,0.0,0.0,0.05,0.0,0.0,0.0,0.0,0.0,0.0,0.0,0.0,0.0,0.0,0.0,0.0
1494527313901506300,68,1494527314385168765,gyro_link,0.0,0.0,0.0,1.0,1.79769313486e+308,0.0,0.0,0.0,1.79769313486e+308,0.0,0.0,0.0,0.05,0.0,0.0,0.0,1.79769313486e+308,0.0,0.0,0.0,1.79769313486e+308,0.0,0.0,0.0,0.05,0.0,0.0,0.0,0.0,0.0,0.0,0.0,0.0,0.0,0.0,0.0,0.0
1494527313919226711,69,1494527314405186293,gyro_link,0.0,0.0,0.0,1.0,1.79769313486e+308,0.0,0.0,0.0,1.79769313486e+308,0.0,0.0,0.0,0.05,0.0,0.0,0.0,1.79769313486e+308,0.0,0.0,0.0,1.79769313486e+308,0.0,0.0,0.0,0.05,0.0,0.0,0.0,0.0,0.0,0.0,0.0,0.0,0.0,0.0,0.0,0.0
1494527313938767931,70,1494527314425024656,gyro_link,0.0,0.0,0.0,1.0,1.79769313486e+308,0.0,0.0,0.0,1.79769313486e+308,0.0,0.0,0.0,0.05,0.0,0.0,0.0,1.79769313486e+308,0.0,0.0,0.0,1.79769313486e+308,0.0,0.0,0.0,0.05,0.0,0.0,0.0,0.0,0.0,0.0,0.0,0.0,0.0,0.0,0.0,0.0
1494527313959073847,71,1494527314445029643,gyro_link,0.0,0.0,0.0,1.0,1.79769313486e+308,0.0,0.0,0.0,1.79769313486e+308,0.0,0.0,0.0,0.05,0.0,0.0,0.0,1.79769313486e+308,0.0,0.0,0.0,1.79769313486e+308,0.0,0.0,0.0,0.05,0.0,0.0,0.0,0.0,0.0,0.0,0.0,0.0,0.0,0.0,0.0,0.0
1494527313982230956,72,1494527314466214752,gyro_link,0.0,0.0,0.0,1.0,1.79769313486e+308,0.0,0.0,0.0,1.79769313486e+308,0.0,0.0,0.0,0.05,0.0,0.0,0.0,1.79769313486e+308,0.0,0.0,0.0,1.79769313486e+308,0.0,0.0,0.0,0.05,0.0,0.0,0.0,0.0,0.0,0.0,0.0,0.0,0.0,0.0,0.0,0.0
1494527313999902698,73,1494527314484170620,gyro_link,0.0,0.0,0.0,1.0,1.79769313486e+308,0.0,0.0,0.0,1.79769313486e+308,0.0,0.0,0.0,0.05,0.0,0.0,0.0,1.79769313486e+308,0.0,0.0,0.0,1.79769313486e+308,0.0,0.0,0.0,0.05,0.0,0.0,0.0,0.0,0.0,0.0,0.0,0.0,0.0,0.0,0.0,0.0
1494527314022425249,74,1494527314505118104,gyro_link,0.0,0.0,0.0,1.0,1.79769313486e+308,0.0,0.0,0.0,1.79769313486e+308,0.0,0.0,0.0,0.05,0.0,0.0,0.0,1.79769313486e+308,0.0,0.0,0.0,1.79769313486e+308,0.0,0.0,0.0,0.05,0.0,0.0,0.0,0.0,0.0,0.0,0.0,0.0,0.0,0.0,0.0,0.0
1494527314041374572,75,1494527314525089466,gyro_link,0.0,0.0,0.0,1.0,1.79769313486e+308,0.0,0.0,0.0,1.79769313486e+308,0.0,0.0,0.0,0.05,0.0,0.0,0.0,1.79769313486e+308,0.0,0.0,0.0,1.79769313486e+308,0.0,0.0,0.0,0.05,0.0,0.0,0.0,0.0,0.0,0.0,0.0,0.0,0.0,0.0,0.0,0.0
1494527314063441214,76,1494527314545204411,gyro_link,0.0,0.0,0.0,1.0,1.79769313486e+308,0.0,0.0,0.0,1.79769313486e+308,0.0,0.0,0.0,0.05,0.0,0.0,0.0,1.79769313486e+308,0.0,0.0,0.0,1.79769313486e+308,0.0,0.0,0.0,0.05,0.0,0.0,0.0,0.0,0.0,0.0,0.0,0.0,0.0,0.0,0.0,0.0
1494527314080272393,77,1494527314565103857,gyro_link,0.0,0.0,0.0,1.0,1.79769313486e+308,0.0,0.0,0.0,1.79769313486e+308,0.0,0.0,0.0,0.05,0.0,0.0,0.0,1.79769313486e+308,0.0,0.0,0.0,1.79769313486e+308,0.0,0.0,0.0,0.05,0.0,0.0,0.0,0.0,0.0,0.0,0.0,0.0,0.0,0.0,0.0,0.0
1494527314105248951,78,1494527314586091508,gyro_link,0.0,0.0,0.0,1.0,1.79769313486e+308,0.0,0.0,0.0,1.79769313486e+308,0.0,0.0,0.0,0.05,0.0,0.0,0.0,1.79769313486e+308,0.0,0.0,0.0,1.79769313486e+308,0.0,0.0,0.0,0.05,0.0,0.0,0.0,0.0,0.0,0.0,0.0,0.0,0.0,0.0,0.0,0.0
1494527314120911545,79,1494527314605574747,gyro_link,0.0,0.0,0.0,1.0,1.79769313486e+308,0.0,0.0,0.0,1.79769313486e+308,0.0,0.0,0.0,0.05,0.0,0.0,0.0,1.79769313486e+308,0.0,0.0,0.0,1.79769313486e+308,0.0,0.0,0.0,0.05,0.0,0.0,0.0,0.0,0.0,0.0,0.0,0.0,0.0,0.0,0.0,0.0
1494527314142331646,80,1494527314625971858,gyro_link,0.0,0.0,0.0,1.0,1.79769313486e+308,0.0,0.0,0.0,1.79769313486e+308,0.0,0.0,0.0,0.05,0.0,0.0,0.0,1.79769313486e+308,0.0,0.0,0.0,1.79769313486e+308,0.0,0.0,0.0,0.05,0.0,0.0,0.0,0.0,0.0,0.0,0.0,0.0,0.0,0.0,0.0,0.0
1494527314161123506,81,1494527314645507430,gyro_link,0.0,0.0,0.0,1.0,1.79769313486e+308,0.0,0.0,0.0,1.79769313486e+308,0.0,0.0,0.0,0.05,0.0,0.0,0.0,1.79769313486e+308,0.0,0.0,0.0,1.79769313486e+308,0.0,0.0,0.0,0.05,0.0,0.0,0.0,0.0,0.0,0.0,0.0,0.0,0.0,0.0,0.0,0.0
1494527314179070652,82,1494527314665054418,gyro_link,0.0,0.0,0.0,1.0,1.79769313486e+308,0.0,0.0,0.0,1.79769313486e+308,0.0,0.0,0.0,0.05,0.0,0.0,0.0,1.79769313486e+308,0.0,0.0,0.0,1.79769313486e+308,0.0,0.0,0.0,0.05,0.0,0.0,0.0,0.0,0.0,0.0,0.0,0.0,0.0,0.0,0.0,0.0
1494527314199155036,83,1494527314685141571,gyro_link,0.0,0.0,0.0,1.0,1.79769313486e+308,0.0,0.0,0.0,1.79769313486e+308,0.0,0.0,0.0,0.05,0.0,0.0,0.0,1.79769313486e+308,0.0,0.0,0.0,1.79769313486e+308,0.0,0.0,0.0,0.05,0.0,0.0,0.0,0.0,0.0,0.0,0.0,0.0,0.0,0.0,0.0,0.0
1494527314325161925,84,1494527314705146350,gyro_link,0.0,0.0,0.0,1.0,1.79769313486e+308,0.0,0.0,0.0,1.79769313486e+308,0.0,0.0,0.0,0.05,0.0,0.0,0.0,1.79769313486e+308,0.0,0.0,0.0,1.79769313486e+308,0.0,0.0,0.0,0.05,0.0,0.0,0.0,0.0,0.0,0.0,0.0,0.0,0.0,0.0,0.0,0.0
1494527314325185393,85,1494527314725045088,gyro_link,0.0,0.0,0.0,1.0,1.79769313486e+308,0.0,0.0,0.0,1.79769313486e+308,0.0,0.0,0.0,0.05,0.0,0.0,0.0,1.79769313486e+308,0.0,0.0,0.0,1.79769313486e+308,0.0,0.0,0.0,0.05,0.0,0.0,0.0,0.0,0.0,0.0,0.0,0.0,0.0,0.0,0.0,0.0
1494527314325192509,86,1494527314745952072,gyro_link,0.0,0.0,0.0,1.0,1.79769313486e+308,0.0,0.0,0.0,1.79769313486e+308,0.0,0.0,0.0,0.05,0.0,0.0,0.0,1.79769313486e+308,0.0,0.0,0.0,1.79769313486e+308,0.0,0.0,0.0,0.05,0.0,0.0,0.0,0.0,0.0,0.0,0.0,0.0,0.0,0.0,0.0,0.0
1494527314325197545,87,1494527314767013598,gyro_link,0.0,0.0,0.0,1.0,1.79769313486e+308,0.0,0.0,0.0,1.79769313486e+308,0.0,0.0,0.0,0.05,0.0,0.0,0.0,1.79769313486e+308,0.0,0.0,0.0,1.79769313486e+308,0.0,0.0,0.0,0.05,0.0,0.0,0.0,0.0,0.0,0.0,0.0,0.0,0.0,0.0,0.0,0.0
1494527314325202474,88,1494527314787084252,gyro_link,0.0,0.0,0.0,1.0,1.79769313486e+308,0.0,0.0,0.0,1.79769313486e+308,0.0,0.0,0.0,0.05,0.0,0.0,0.0,1.79769313486e+308,0.0,0.0,0.0,1.79769313486e+308,0.0,0.0,0.0,0.05,0.0,0.0,0.0,0.0,0.0,0.0,0.0,0.0,0.0,0.0,0.0,0.0
1494527314326942479,89,1494527314804984119,gyro_link,0.0,0.0,0.0,1.0,1.79769313486e+308,0.0,0.0,0.0,1.79769313486e+308,0.0,0.0,0.0,0.05,0.0,0.0,0.0,1.79769313486e+308,0.0,0.0,0.0,1.79769313486e+308,0.0,0.0,0.0,0.05,0.0,0.0,0.0,0.0,0.0,0.0,0.0,0.0,0.0,0.0,0.0,0.0
1494527314341131886,90,1494527314825049648,gyro_link,0.0,0.0,0.0,1.0,1.79769313486e+308,0.0,0.0,0.0,1.79769313486e+308,0.0,0.0,0.0,0.05,0.0,0.0,0.0,1.79769313486e+308,0.0,0.0,0.0,1.79769313486e+308,0.0,0.0,0.0,0.05,0.0,0.0,0.0,0.0,0.0,0.0,0.0,0.0,0.0,0.0,0.0,0.0
1494527314360068554,91,1494527314845335093,gyro_link,0.0,0.0,0.0,1.0,1.79769313486e+308,0.0,0.0,0.0,1.79769313486e+308,0.0,0.0,0.0,0.05,0.0,0.0,0.0,1.79769313486e+308,0.0,0.0,0.0,1.79769313486e+308,0.0,0.0,0.0,0.05,0.0,0.0,0.0,0.0,0.0,0.0,0.0,0.0,0.0,0.0,0.0,0.0
1494527314379824314,92,1494527314865166580,gyro_link,0.0,0.0,0.0,1.0,1.79769313486e+308,0.0,0.0,0.0,1.79769313486e+308,0.0,0.0,0.0,0.05,0.0,0.0,0.0,1.79769313486e+308,0.0,0.0,0.0,1.79769313486e+308,0.0,0.0,0.0,0.05,0.0,0.0,0.0,0.0,0.0,0.0,0.0,0.0,0.0,0.0,0.0,0.0
1494527314399587181,93,1494527314884966401,gyro_link,0.0,0.0,0.0,1.0,1.79769313486e+308,0.0,0.0,0.0,1.79769313486e+308,0.0,0.0,0.0,0.05,0.0,0.0,0.0,1.79769313486e+308,0.0,0.0,0.0,1.79769313486e+308,0.0,0.0,0.0,0.05,0.0,0.0,0.0,0.0,0.0,0.0,0.0,0.0,0.0,0.0,0.0,0.0
1494527314421875852,94,1494527314904918639,gyro_link,0.0,0.0,0.0,1.0,1.79769313486e+308,0.0,0.0,0.0,1.79769313486e+308,0.0,0.0,0.0,0.05,0.0,0.0,0.0,1.79769313486e+308,0.0,0.0,0.0,1.79769313486e+308,0.0,0.0,0.0,0.05,0.0,0.0,0.0,0.0,0.0,0.0,0.0,0.0,0.0,0.0,0.0,0.0
1494527314442396821,95,1494527314925823790,gyro_link,0.0,0.0,0.0,1.0,1.79769313486e+308,0.0,0.0,0.0,1.79769313486e+308,0.0,0.0,0.0,0.05,0.0,0.0,0.0,1.79769313486e+308,0.0,0.0,0.0,1.79769313486e+308,0.0,0.0,0.0,0.05,0.0,0.0,0.0,0.0,0.0,0.0,0.0,0.0,0.0,0.0,0.0,0.0
1494527314460282969,96,1494527314945035154,gyro_link,0.0,0.0,0.0,1.0,1.79769313486e+308,0.0,0.0,0.0,1.79769313486e+308,0.0,0.0,0.0,0.05,0.0,0.0,0.0,1.79769313486e+308,0.0,0.0,0.0,1.79769313486e+308,0.0,0.0,0.0,0.05,0.0,0.0,0.0,0.0,0.0,0.0,0.0,0.0,0.0,0.0,0.0,0.0
1494527314481369511,97,1494527314965894181,gyro_link,0.0,0.0,0.0,1.0,1.79769313486e+308,0.0,0.0,0.0,1.79769313486e+308,0.0,0.0,0.0,0.05,0.0,0.0,0.0,1.79769313486e+308,0.0,0.0,0.0,1.79769313486e+308,0.0,0.0,0.0,0.05,0.0,0.0,0.0,0.0,0.0,0.0,0.0,0.0,0.0,0.0,0.0,0.0
1494527314501879461,98,1494527314985967126,gyro_link,0.0,0.0,0.0,1.0,1.79769313486e+308,0.0,0.0,0.0,1.79769313486e+308,0.0,0.0,0.0,0.05,0.0,0.0,0.0,1.79769313486e+308,0.0,0.0,0.0,1.79769313486e+308,0.0,0.0,0.0,0.05,0.0,0.0,0.0,0.0,0.0,0.0,0.0,0.0,0.0,0.0,0.0,0.0
1494527314521430792,99,1494527315005895321,gyro_link,0.0,0.0,0.0,1.0,1.79769313486e+308,0.0,0.0,0.0,1.79769313486e+308,0.0,0.0,0.0,0.05,0.0,0.0,0.0,1.79769313486e+308,0.0,0.0,0.0,1.79769313486e+308,0.0,0.0,0.0,0.05,0.0,0.0,0.0,0.0,0.0,0.0,0.0,0.0,0.0,0.0,0.0,0.0
1494527314547059003,100,1494527315025214393,gyro_link,0.0,0.0,0.0,1.0,1.79769313486e+308,0.0,0.0,0.0,1.79769313486e+308,0.0,0.0,0.0,0.05,0.0,0.0,0.0,1.79769313486e+308,0.0,0.0,0.0,1.79769313486e+308,0.0,0.0,0.0,0.05,0.0,0.0,0.0,0.0,0.0,0.0,0.0,0.0,0.0,0.0,0.0,0.0
1494527314563354973,101,1494527315046223835,gyro_link,0.0,0.0,0.0,1.0,1.79769313486e+308,0.0,0.0,0.0,1.79769313486e+308,0.0,0.0,0.0,0.05,0.0,0.0,0.0,1.79769313486e+308,0.0,0.0,0.0,1.79769313486e+308,0.0,0.0,0.0,0.05,0.0,0.0,0.0,0.0,0.0,0.0,0.0,0.0,0.0,0.0,0.0,0.0
1494527314594192276,102,1494527315071605598,gyro_link,0.0,0.0,0.0,1.0,1.79769313486e+308,0.0,0.0,0.0,1.79769313486e+308,0.0,0.0,0.0,0.05,0.0,0.0,0.0,1.79769313486e+308,0.0,0.0,0.0,1.79769313486e+308,0.0,0.0,0.0,0.05,0.0,0.0,0.0,0.0,0.0,0.0,0.0,0.0,0.0,0.0,0.0,0.0
1494527314606022761,103,1494527315087583179,gyro_link,0.0,0.0,0.0,1.0,1.79769313486e+308,0.0,0.0,0.0,1.79769313486e+308,0.0,0.0,0.0,0.05,0.0,0.0,0.0,1.79769313486e+308,0.0,0.0,0.0,1.79769313486e+308,0.0,0.0,0.0,0.05,0.0,0.0,0.0,0.0,0.0,0.0,0.0,0.0,0.0,0.0,0.0,0.0
1494527314620842440,104,1494527315105549088,gyro_link,0.0,0.0,0.0,1.0,1.79769313486e+308,0.0,0.0,0.0,1.79769313486e+308,0.0,0.0,0.0,0.05,0.0,0.0,0.0,1.79769313486e+308,0.0,0.0,0.0,1.79769313486e+308,0.0,0.0,0.0,0.05,0.0,0.0,0.0,0.0,0.0,0.0,0.0,0.0,0.0,0.0,0.0,0.0
1494527314641239284,105,1494527315125899573,gyro_link,0.0,0.0,0.0,1.0,1.79769313486e+308,0.0,0.0,0.0,1.79769313486e+308,0.0,0.0,0.0,0.05,0.0,0.0,0.0,1.79769313486e+308,0.0,0.0,0.0,1.79769313486e+308,0.0,0.0,0.0,0.05,0.0,0.0,0.0,0.0,0.0,0.0,0.0,0.0,0.0,0.0,0.0,0.0
1494527314660478843,106,1494527315145926309,gyro_link,0.0,0.0,0.0,1.0,1.79769313486e+308,0.0,0.0,0.0,1.79769313486e+308,0.0,0.0,0.0,0.05,0.0,0.0,0.0,1.79769313486e+308,0.0,0.0,0.0,1.79769313486e+308,0.0,0.0,0.0,0.05,0.0,0.0,0.0,0.0,0.0,0.0,0.0,0.0,0.0,0.0,0.0,0.0
1494527314681497035,107,1494527315165935004,gyro_link,0.0,0.0,0.0,1.0,1.79769313486e+308,0.0,0.0,0.0,1.79769313486e+308,0.0,0.0,0.0,0.05,0.0,0.0,0.0,1.79769313486e+308,0.0,0.0,0.0,1.79769313486e+308,0.0,0.0,0.0,0.05,0.0,0.0,0.0,0.0,0.0,0.0,0.0,0.0,0.0,0.0,0.0,0.0
1494527314700724592,108,1494527315185943157,gyro_link,0.0,0.0,0.0,1.0,1.79769313486e+308,0.0,0.0,0.0,1.79769313486e+308,0.0,0.0,0.0,0.05,0.0,0.0,0.0,1.79769313486e+308,0.0,0.0,0.0,1.79769313486e+308,0.0,0.0,0.0,0.05,0.0,0.0,0.0,0.0,0.0,0.0,0.0,0.0,0.0,0.0,0.0,0.0
1494527314726089516,109,1494527315207973138,gyro_link,0.0,0.0,0.0,1.0,1.79769313486e+308,0.0,0.0,0.0,1.79769313486e+308,0.0,0.0,0.0,0.05,0.0,0.0,0.0,1.79769313486e+308,0.0,0.0,0.0,1.79769313486e+308,0.0,0.0,0.0,0.05,0.0,0.0,0.0,0.0,0.0,0.0,0.0,0.0,0.0,0.0,0.0,0.0
1494527314741407543,110,1494527315226018880,gyro_link,0.0,0.0,0.0,1.0,1.79769313486e+308,0.0,0.0,0.0,1.79769313486e+308,0.0,0.0,0.0,0.05,0.0,0.0,0.0,1.79769313486e+308,0.0,0.0,0.0,1.79769313486e+308,0.0,0.0,0.0,0.05,0.0,0.0,0.0,0.0,0.0,0.0,0.0,0.0,0.0,0.0,0.0,0.0
1494527314761689275,111,1494527315245902950,gyro_link,0.0,0.0,0.0,1.0,1.79769313486e+308,0.0,0.0,0.0,1.79769313486e+308,0.0,0.0,0.0,0.05,0.0,0.0,0.0,1.79769313486e+308,0.0,0.0,0.0,1.79769313486e+308,0.0,0.0,0.0,0.05,0.0,0.0,0.0,0.0,0.0,0.0,0.0,0.0,0.0,0.0,0.0,0.0
1494527314780774185,112,1494527315265835770,gyro_link,0.0,0.0,0.0,1.0,1.79769313486e+308,0.0,0.0,0.0,1.79769313486e+308,0.0,0.0,0.0,0.05,0.0,0.0,0.0,1.79769313486e+308,0.0,0.0,0.0,1.79769313486e+308,0.0,0.0,0.0,0.05,0.0,0.0,0.0,0.0,0.0,0.0,0.0,0.0,0.0,0.0,0.0,0.0
1494527314804289274,113,1494527315286010714,gyro_link,0.0,0.0,0.0,1.0,1.79769313486e+308,0.0,0.0,0.0,1.79769313486e+308,0.0,0.0,0.0,0.05,0.0,0.0,0.0,1.79769313486e+308,0.0,0.0,0.0,1.79769313486e+308,0.0,0.0,0.0,0.05,0.0,0.0,0.0,0.0,0.0,0.0,0.0,0.0,0.0,0.0,0.0,0.0
1494527314822466096,114,1494527315306915823,gyro_link,0.0,0.0,0.0,1.0,1.79769313486e+308,0.0,0.0,0.0,1.79769313486e+308,0.0,0.0,0.0,0.05,0.0,0.0,0.0,1.79769313486e+308,0.0,0.0,0.0,1.79769313486e+308,0.0,0.0,0.0,0.05,0.0,0.0,0.0,0.0,0.0,0.0,0.0,0.0,0.0,0.0,0.0,0.0
1494527314844900075,115,1494527315326616227,gyro_link,0.0,0.0,0.0,1.0,1.79769313486e+308,0.0,0.0,0.0,1.79769313486e+308,0.0,0.0,0.0,0.05,0.0,0.0,0.0,1.79769313486e+308,0.0,0.0,0.0,1.79769313486e+308,0.0,0.0,0.0,0.05,0.0,0.0,0.0,0.0,0.0,0.0,0.0,0.0,0.0,0.0,0.0,0.0
1494527314862722419,116,1494527315346579255,gyro_link,0.0,0.0,0.0,1.0,1.79769313486e+308,0.0,0.0,0.0,1.79769313486e+308,0.0,0.0,0.0,0.05,0.0,0.0,0.0,1.79769313486e+308,0.0,0.0,0.0,1.79769313486e+308,0.0,0.0,0.0,0.05,0.0,0.0,0.0,0.0,0.0,0.0,0.0,0.0,0.0,0.0,0.0,0.0
1494527314881812980,117,1494527315367438864,gyro_link,0.0,0.0,0.0,1.0,1.79769313486e+308,0.0,0.0,0.0,1.79769313486e+308,0.0,0.0,0.0,0.05,0.0,0.0,0.0,1.79769313486e+308,0.0,0.0,0.0,1.79769313486e+308,0.0,0.0,0.0,0.05,0.0,0.0,0.0,0.0,0.0,0.0,0.0,0.0,0.0,0.0,0.0,0.0
1494527314900280869,118,1494527315386022021,gyro_link,0.0,0.0,0.0,1.0,1.79769313486e+308,0.0,0.0,0.0,1.79769313486e+308,0.0,0.0,0.0,0.05,0.0,0.0,0.0,1.79769313486e+308,0.0,0.0,0.0,1.79769313486e+308,0.0,0.0,0.0,0.05,0.0,0.0,0.0,0.0,0.0,0.0,0.0,0.0,0.0,0.0,0.0,0.0
1494527314920812480,119,1494527315405858591,gyro_link,0.0,0.0,0.0,1.0,1.79769313486e+308,0.0,0.0,0.0,1.79769313486e+308,0.0,0.0,0.0,0.05,0.0,0.0,0.0,1.79769313486e+308,0.0,0.0,0.0,1.79769313486e+308,0.0,0.0,0.0,0.05,0.0,0.0,0.0,0.0,0.0,0.0,0.0,0.0,0.0,0.0,0.0,0.0
1494527314939767289,120,1494527315425738786,gyro_link,0.0,0.0,0.0,1.0,1.79769313486e+308,0.0,0.0,0.0,1.79769313486e+308,0.0,0.0,0.0,0.05,0.0,0.0,0.0,1.79769313486e+308,0.0,0.0,0.0,1.79769313486e+308,0.0,0.0,0.0,0.05,0.0,0.0,0.0,0.0,0.0,0.0,0.0,0.0,0.0,0.0,0.0,0.0
1494527314972860475,121,1494527315449615179,gyro_link,0.0,0.0,0.0,1.0,1.79769313486e+308,0.0,0.0,0.0,1.79769313486e+308,0.0,0.0,0.0,0.05,0.0,0.0,0.0,1.79769313486e+308,0.0,0.0,0.0,1.79769313486e+308,0.0,0.0,0.0,0.05,0.0,0.0,0.0,0.0,0.0,0.0,0.0,0.0,0.0,0.0,0.0,0.0
1494527314981676709,122,1494527315467416421,gyro_link,0.0,0.0,0.0,1.0,1.79769313486e+308,0.0,0.0,0.0,1.79769313486e+308,0.0,0.0,0.0,0.05,0.0,0.0,0.0,1.79769313486e+308,0.0,0.0,0.0,1.79769313486e+308,0.0,0.0,0.0,0.05,0.0,0.0,0.0,0.0,0.0,0.0,0.0,0.0,0.0,0.0,0.0,0.0
1494527315000695609,123,1494527315485754537,gyro_link,0.0,0.0,0.0,1.0,1.79769313486e+308,0.0,0.0,0.0,1.79769313486e+308,0.0,0.0,0.0,0.05,0.0,0.0,0.0,1.79769313486e+308,0.0,0.0,0.0,1.79769313486e+308,0.0,0.0,0.0,0.05,0.0,0.0,0.0,0.0,0.0,0.0,0.0,0.0,0.0,0.0,0.0,0.0
1494527315022774757,124,1494527315506733812,gyro_link,0.0,0.0,0.0,1.0,1.79769313486e+308,0.0,0.0,0.0,1.79769313486e+308,0.0,0.0,0.0,0.05,0.0,0.0,0.0,1.79769313486e+308,0.0,0.0,0.0,1.79769313486e+308,0.0,0.0,0.0,0.05,0.0,0.0,0.0,0.0,0.0,0.0,0.0,0.0,0.0,0.0,0.0,0.0
1494527315041129438,125,1494527315525704927,gyro_link,0.0,0.0,0.0,1.0,1.79769313486e+308,0.0,0.0,0.0,1.79769313486e+308,0.0,0.0,0.0,0.05,0.0,0.0,0.0,1.79769313486e+308,0.0,0.0,0.0,1.79769313486e+308,0.0,0.0,0.0,0.05,0.0,0.0,0.0,0.0,0.0,0.0,0.0,0.0,0.0,0.0,0.0,0.0
1494527315071164475,126,1494527315545734955,gyro_link,0.0,0.0,0.0,1.0,1.79769313486e+308,0.0,0.0,0.0,1.79769313486e+308,0.0,0.0,0.0,0.05,0.0,0.0,0.0,1.79769313486e+308,0.0,0.0,0.0,1.79769313486e+308,0.0,0.0,0.0,0.05,0.0,0.0,0.0,0.0,0.0,0.0,0.0,0.0,0.0,0.0,0.0,0.0
1494527315081303731,127,1494527315565837691,gyro_link,0.0,0.0,0.0,1.0,1.79769313486e+308,0.0,0.0,0.0,1.79769313486e+308,0.0,0.0,0.0,0.05,0.0,0.0,0.0,1.79769313486e+308,0.0,0.0,0.0,1.79769313486e+308,0.0,0.0,0.0,0.05,0.0,0.0,0.0,0.0,0.0,0.0,0.0,0.0,0.0,0.0,0.0,0.0
1494527315101019692,128,1494527315586276551,gyro_link,0.0,0.0,0.0,1.0,1.79769313486e+308,0.0,0.0,0.0,1.79769313486e+308,0.0,0.0,0.0,0.05,0.0,0.0,0.0,1.79769313486e+308,0.0,0.0,0.0,1.79769313486e+308,0.0,0.0,0.0,0.05,0.0,0.0,0.0,0.0,0.0,0.0,0.0,0.0,0.0,0.0,0.0,0.0
1494527315121246041,129,1494527315605971830,gyro_link,0.0,0.0,0.0,1.0,1.79769313486e+308,0.0,0.0,0.0,1.79769313486e+308,0.0,0.0,0.0,0.05,0.0,0.0,0.0,1.79769313486e+308,0.0,0.0,0.0,1.79769313486e+308,0.0,0.0,0.0,0.05,0.0,0.0,0.0,0.0,0.0,0.0,0.0,0.0,0.0,0.0,0.0,0.0
1494527315140576622,130,1494527315625770859,gyro_link,0.0,0.0,0.0,1.0,1.79769313486e+308,0.0,0.0,0.0,1.79769313486e+308,0.0,0.0,0.0,0.05,0.0,0.0,0.0,1.79769313486e+308,0.0,0.0,0.0,1.79769313486e+308,0.0,0.0,0.0,0.05,0.0,0.0,0.0,0.0,0.0,0.0,0.0,0.0,0.0,0.0,0.0,0.0
1494527315160870350,131,1494527315645711387,gyro_link,0.0,0.0,0.0,1.0,1.79769313486e+308,0.0,0.0,0.0,1.79769313486e+308,0.0,0.0,0.0,0.05,0.0,0.0,0.0,1.79769313486e+308,0.0,0.0,0.0,1.79769313486e+308,0.0,0.0,0.0,0.05,0.0,0.0,0.0,0.0,0.0,0.0,0.0,0.0,0.0,0.0,0.0,0.0
1494527315184594094,132,1494527315667291035,gyro_link,0.0,0.0,0.0,1.0,1.79769313486e+308,0.0,0.0,0.0,1.79769313486e+308,0.0,0.0,0.0,0.05,0.0,0.0,0.0,1.79769313486e+308,0.0,0.0,0.0,1.79769313486e+308,0.0,0.0,0.0,0.05,0.0,0.0,0.0,0.0,0.0,0.0,0.0,0.0,0.0,0.0,0.0,0.0
1494527315204941383,133,1494527315687719562,gyro_link,0.0,0.0,0.0,1.0,1.79769313486e+308,0.0,0.0,0.0,1.79769313486e+308,0.0,0.0,0.0,0.05,0.0,0.0,0.0,1.79769313486e+308,0.0,0.0,0.0,1.79769313486e+308,0.0,0.0,0.0,0.05,0.0,0.0,0.0,0.0,0.0,0.0,0.0,0.0,0.0,0.0,0.0,0.0
1494527315229353156,134,1494527315706648177,gyro_link,0.0,0.0,0.0,1.0,1.79769313486e+308,0.0,0.0,0.0,1.79769313486e+308,0.0,0.0,0.0,0.05,0.0,0.0,0.0,1.79769313486e+308,0.0,0.0,0.0,1.79769313486e+308,0.0,0.0,0.0,0.05,0.0,0.0,0.0,0.0,0.0,0.0,0.0,0.0,0.0,0.0,0.0,0.0
1494527315242263422,135,1494527315727440119,gyro_link,0.0,0.0,0.0,1.0,1.79769313486e+308,0.0,0.0,0.0,1.79769313486e+308,0.0,0.0,0.0,0.05,0.0,0.0,0.0,1.79769313486e+308,0.0,0.0,0.0,1.79769313486e+308,0.0,0.0,0.0,0.05,0.0,0.0,0.0,0.0,0.0,0.0,0.0,0.0,0.0,0.0,0.0,0.0
1494527315265435808,136,1494527315748101896,gyro_link,0.0,0.0,0.0,1.0,1.79769313486e+308,0.0,0.0,0.0,1.79769313486e+308,0.0,0.0,0.0,0.05,0.0,0.0,0.0,1.79769313486e+308,0.0,0.0,0.0,1.79769313486e+308,0.0,0.0,0.0,0.05,0.0,0.0,0.0,0.0,0.0,0.0,0.0,0.0,0.0,0.0,0.0,0.0
1494527315282575697,137,1494527315766724927,gyro_link,0.0,0.0,0.0,1.0,1.79769313486e+308,0.0,0.0,0.0,1.79769313486e+308,0.0,0.0,0.0,0.05,0.0,0.0,0.0,1.79769313486e+308,0.0,0.0,0.0,1.79769313486e+308,0.0,0.0,0.0,0.05,0.0,0.0,0.0,0.0,0.0,0.0,0.0,0.0,0.0,0.0,0.0,0.0
1494527315299871793,138,1494527315785650292,gyro_link,0.0,0.0,0.0,1.0,1.79769313486e+308,0.0,0.0,0.0,1.79769313486e+308,0.0,0.0,0.0,0.05,0.0,0.0,0.0,1.79769313486e+308,0.0,0.0,0.0,1.79769313486e+308,0.0,0.0,0.0,0.05,0.0,0.0,0.0,0.0,0.0,0.0,0.0,0.0,0.0,0.0,0.0,0.0
1494527315319628700,139,1494527315805880569,gyro_link,0.0,0.0,0.0,1.0,1.79769313486e+308,0.0,0.0,0.0,1.79769313486e+308,0.0,0.0,0.0,0.05,0.0,0.0,0.0,1.79769313486e+308,0.0,0.0,0.0,1.79769313486e+308,0.0,0.0,0.0,0.05,0.0,0.0,0.0,0.0,0.0,0.0,0.0,0.0,0.0,0.0,0.0,0.0
1494527315341446502,140,1494527315826636887,gyro_link,0.0,0.0,0.0,1.0,1.79769313486e+308,0.0,0.0,0.0,1.79769313486e+308,0.0,0.0,0.0,0.05,0.0,0.0,0.0,1.79769313486e+308,0.0,0.0,0.0,1.79769313486e+308,0.0,0.0,0.0,0.05,0.0,0.0,0.0,0.0,0.0,0.0,0.0,0.0,0.0,0.0,0.0,0.0
1494527315364064437,141,1494527315846664123,gyro_link,0.0,0.0,0.0,1.0,1.79769313486e+308,0.0,0.0,0.0,1.79769313486e+308,0.0,0.0,0.0,0.05,0.0,0.0,0.0,1.79769313486e+308,0.0,0.0,0.0,1.79769313486e+308,0.0,0.0,0.0,0.05,0.0,0.0,0.0,0.0,0.0,0.0,0.0,0.0,0.0,0.0,0.0,0.0
1494527315385051059,142,1494527315866477943,gyro_link,0.0,0.0,0.0,1.0,1.79769313486e+308,0.0,0.0,0.0,1.79769313486e+308,0.0,0.0,0.0,0.05,0.0,0.0,0.0,1.79769313486e+308,0.0,0.0,0.0,1.79769313486e+308,0.0,0.0,0.0,0.05,0.0,0.0,0.0,0.0,0.0,0.0,0.0,0.0,0.0,0.0,0.0,0.0
1494527315401765728,143,1494527315886861512,gyro_link,0.0,0.0,0.0,1.0,1.79769313486e+308,0.0,0.0,0.0,1.79769313486e+308,0.0,0.0,0.0,0.05,0.0,0.0,0.0,1.79769313486e+308,0.0,0.0,0.0,1.79769313486e+308,0.0,0.0,0.0,0.05,0.0,0.0,0.0,0.0,0.0,0.0,0.0,0.0,0.0,0.0,0.0,0.0
1494527315422167989,144,1494527315906904665,gyro_link,0.0,0.0,0.0,1.0,1.79769313486e+308,0.0,0.0,0.0,1.79769313486e+308,0.0,0.0,0.0,0.05,0.0,0.0,0.0,1.79769313486e+308,0.0,0.0,0.0,1.79769313486e+308,0.0,0.0,0.0,0.05,0.0,0.0,0.0,0.0,0.0,0.0,0.0,0.0,0.0,0.0,0.0,0.0
1494527315442514286,145,1494527315927111276,gyro_link,0.0,0.0,0.0,1.0,1.79769313486e+308,0.0,0.0,0.0,1.79769313486e+308,0.0,0.0,0.0,0.05,0.0,0.0,0.0,1.79769313486e+308,0.0,0.0,0.0,1.79769313486e+308,0.0,0.0,0.0,0.05,0.0,0.0,0.0,0.0,0.0,0.0,0.0,0.0,0.0,0.0,0.0,0.0
1494527315467143560,146,1494527315947257554,gyro_link,0.0,0.0,0.0,1.0,1.79769313486e+308,0.0,0.0,0.0,1.79769313486e+308,0.0,0.0,0.0,0.05,0.0,0.0,0.0,1.79769313486e+308,0.0,0.0,0.0,1.79769313486e+308,0.0,0.0,0.0,0.05,0.0,0.0,0.0,0.0,0.0,0.0,0.0,0.0,0.0,0.0,0.0,0.0
1494527315482124302,147,1494527315966938291,gyro_link,0.0,0.0,0.0,1.0,1.79769313486e+308,0.0,0.0,0.0,1.79769313486e+308,0.0,0.0,0.0,0.05,0.0,0.0,0.0,1.79769313486e+308,0.0,0.0,0.0,1.79769313486e+308,0.0,0.0,0.0,0.05,0.0,0.0,0.0,0.0,0.0,0.0,0.0,0.0,0.0,0.0,0.0,0.0
1494527315515585076,148,1494527315986871236,gyro_link,0.0,0.0,0.0,1.0,1.79769313486e+308,0.0,0.0,0.0,1.79769313486e+308,0.0,0.0,0.0,0.05,0.0,0.0,0.0,1.79769313486e+308,0.0,0.0,0.0,1.79769313486e+308,0.0,0.0,0.0,0.05,0.0,0.0,0.0,0.0,0.0,0.0,0.0,0.0,0.0,0.0,0.0,0.0
1494527315522874464,149,1494527316007215054,gyro_link,0.0,0.0,0.0,1.0,1.79769313486e+308,0.0,0.0,0.0,1.79769313486e+308,0.0,0.0,0.0,0.05,0.0,0.0,0.0,1.79769313486e+308,0.0,0.0,0.0,1.79769313486e+308,0.0,0.0,0.0,0.05,0.0,0.0,0.0,0.0,0.0,0.0,0.0,0.0,0.0,0.0,0.0,0.0
1494527315542654586,150,1494527316026761666,gyro_link,0.0,0.0,0.0,1.0,1.79769313486e+308,0.0,0.0,0.0,1.79769313486e+308,0.0,0.0,0.0,0.05,0.0,0.0,0.0,1.79769313486e+308,0.0,0.0,0.0,1.79769313486e+308,0.0,0.0,0.0,0.05,0.0,0.0,0.0,0.0,0.0,0.0,0.0,0.0,0.0,0.0,0.0,0.0
1494527315562333963,151,1494527316046671902,gyro_link,0.0,0.0,0.0,1.0,1.79769313486e+308,0.0,0.0,0.0,1.79769313486e+308,0.0,0.0,0.0,0.05,0.0,0.0,0.0,1.79769313486e+308,0.0,0.0,0.0,1.79769313486e+308,0.0,0.0,0.0,0.05,0.0,0.0,0.0,0.0,0.0,0.0,0.0,0.0,0.0,0.0,0.0,0.0
1494527315582471823,152,1494527316067819551,gyro_link,0.0,0.0,0.0,1.0,1.79769313486e+308,0.0,0.0,0.0,1.79769313486e+308,0.0,0.0,0.0,0.05,0.0,0.0,0.0,1.79769313486e+308,0.0,0.0,0.0,1.79769313486e+308,0.0,0.0,0.0,0.05,0.0,0.0,0.0,0.0,0.0,0.0,0.0,0.0,0.0,0.0,0.0,0.0
1494527315604880719,153,1494527316088575202,gyro_link,0.0,0.0,0.0,1.0,1.79769313486e+308,0.0,0.0,0.0,1.79769313486e+308,0.0,0.0,0.0,0.05,0.0,0.0,0.0,1.79769313486e+308,0.0,0.0,0.0,1.79769313486e+308,0.0,0.0,0.0,0.05,0.0,0.0,0.0,0.0,0.0,0.0,0.0,0.0,0.0,0.0,0.0,0.0
1494527315621319442,154,1494527316106869692,gyro_link,0.0,0.0,0.0,1.0,1.79769313486e+308,0.0,0.0,0.0,1.79769313486e+308,0.0,0.0,0.0,0.05,0.0,0.0,0.0,1.79769313486e+308,0.0,0.0,0.0,1.79769313486e+308,0.0,0.0,0.0,0.05,0.0,0.0,0.0,0.0,0.0,0.0,0.0,0.0,0.0,0.0,0.0,0.0
1494527315641368550,155,1494527316126723137,gyro_link,0.0,0.0,0.0,1.0,1.79769313486e+308,0.0,0.0,0.0,1.79769313486e+308,0.0,0.0,0.0,0.05,0.0,0.0,0.0,1.79769313486e+308,0.0,0.0,0.0,1.79769313486e+308,0.0,0.0,0.0,0.05,0.0,0.0,0.0,0.0,0.0,0.0,0.0,0.0,0.0,0.0,0.0,0.0
1494527315662218682,156,1494527316147417620,gyro_link,0.0,0.0,0.0,1.0,1.79769313486e+308,0.0,0.0,0.0,1.79769313486e+308,0.0,0.0,0.0,0.05,0.0,0.0,0.0,1.79769313486e+308,0.0,0.0,0.0,1.79769313486e+308,0.0,0.0,0.0,0.05,0.0,0.0,0.0,0.0,0.0,0.0,0.0,0.0,0.0,0.0,0.0,0.0
1494527315681590257,157,1494527316166814816,gyro_link,0.0,0.0,0.0,1.0,1.79769313486e+308,0.0,0.0,0.0,1.79769313486e+308,0.0,0.0,0.0,0.05,0.0,0.0,0.0,1.79769313486e+308,0.0,0.0,0.0,1.79769313486e+308,0.0,0.0,0.0,0.05,0.0,0.0,0.0,0.0,0.0,0.0,0.0,0.0,0.0,0.0,0.0,0.0
1494527315711742401,158,1494527316186687552,gyro_link,0.0,0.0,0.0,1.0,1.79769313486e+308,0.0,0.0,0.0,1.79769313486e+308,0.0,0.0,0.0,0.05,0.0,0.0,0.0,1.79769313486e+308,0.0,0.0,0.0,1.79769313486e+308,0.0,0.0,0.0,0.05,0.0,0.0,0.0,0.0,0.0,0.0,0.0,0.0,0.0,0.0,0.0,0.0
1494527315721144664,159,1494527316206713205,gyro_link,0.0,0.0,0.0,1.0,1.79769313486e+308,0.0,0.0,0.0,1.79769313486e+308,0.0,0.0,0.0,0.05,0.0,0.0,0.0,1.79769313486e+308,0.0,0.0,0.0,1.79769313486e+308,0.0,0.0,0.0,0.05,0.0,0.0,0.0,0.0,0.0,0.0,0.0,0.0,0.0,0.0,0.0,0.0
1494527315744158427,160,1494527316227538688,gyro_link,0.0,0.0,0.0,1.0,1.79769313486e+308,0.0,0.0,0.0,1.79769313486e+308,0.0,0.0,0.0,0.05,0.0,0.0,0.0,1.79769313486e+308,0.0,0.0,0.0,1.79769313486e+308,0.0,0.0,0.0,0.05,0.0,0.0,0.0,0.0,0.0,0.0,0.0,0.0,0.0,0.0,0.0,0.0
1494527315763948825,161,1494527316247650923,gyro_link,0.0,0.0,0.0,1.0,1.79769313486e+308,0.0,0.0,0.0,1.79769313486e+308,0.0,0.0,0.0,0.05,0.0,0.0,0.0,1.79769313486e+308,0.0,0.0,0.0,1.79769313486e+308,0.0,0.0,0.0,0.05,0.0,0.0,0.0,0.0,0.0,0.0,0.0,0.0,0.0,0.0,0.0,0.0
1494527315782214182,162,1494527316267569909,gyro_link,0.0,0.0,0.0,1.0,1.79769313486e+308,0.0,0.0,0.0,1.79769313486e+308,0.0,0.0,0.0,0.05,0.0,0.0,0.0,1.79769313486e+308,0.0,0.0,0.0,1.79769313486e+308,0.0,0.0,0.0,0.05,0.0,0.0,0.0,0.0,0.0,0.0,0.0,0.0,0.0,0.0,0.0,0.0
1494527315803131287,163,1494527316287610770,gyro_link,0.0,0.0,0.0,1.0,1.79769313486e+308,0.0,0.0,0.0,1.79769313486e+308,0.0,0.0,0.0,0.05,0.0,0.0,0.0,1.79769313486e+308,0.0,0.0,0.0,1.79769313486e+308,0.0,0.0,0.0,0.05,0.0,0.0,0.0,0.0,0.0,0.0,0.0,0.0,0.0,0.0,0.0,0.0
1494527315821606144,164,1494527316307928963,gyro_link,0.0,0.0,0.0,1.0,1.79769313486e+308,0.0,0.0,0.0,1.79769313486e+308,0.0,0.0,0.0,0.05,0.0,0.0,0.0,1.79769313486e+308,0.0,0.0,0.0,1.79769313486e+308,0.0,0.0,0.0,0.05,0.0,0.0,0.0,0.0,0.0,0.0,0.0,0.0,0.0,0.0,0.0,0.0
1494527315843090829,165,1494527316327660949,gyro_link,0.0,0.0,0.0,1.0,1.79769313486e+308,0.0,0.0,0.0,1.79769313486e+308,0.0,0.0,0.0,0.05,0.0,0.0,0.0,1.79769313486e+308,0.0,0.0,0.0,1.79769313486e+308,0.0,0.0,0.0,0.05,0.0,0.0,0.0,0.0,0.0,0.0,0.0,0.0,0.0,0.0,0.0,0.0
1494527315861481964,166,1494527316346669480,gyro_link,0.0,0.0,0.0,1.0,1.79769313486e+308,0.0,0.0,0.0,1.79769313486e+308,0.0,0.0,0.0,0.05,0.0,0.0,0.0,1.79769313486e+308,0.0,0.0,0.0,1.79769313486e+308,0.0,0.0,0.0,0.05,0.0,0.0,0.0,0.0,0.0,0.0,0.0,0.0,0.0,0.0,0.0,0.0
1494527315881949838,167,1494527316366691257,gyro_link,0.0,0.0,0.0,1.0,1.79769313486e+308,0.0,0.0,0.0,1.79769313486e+308,0.0,0.0,0.0,0.05,0.0,0.0,0.0,1.79769313486e+308,0.0,0.0,0.0,1.79769313486e+308,0.0,0.0,0.0,0.05,0.0,0.0,0.0,0.0,0.0,0.0,0.0,0.0,0.0,0.0,0.0,0.0
1494527315902473583,168,1494527316386723743,gyro_link,0.0,0.0,0.0,1.0,1.79769313486e+308,0.0,0.0,0.0,1.79769313486e+308,0.0,0.0,0.0,0.05,0.0,0.0,0.0,1.79769313486e+308,0.0,0.0,0.0,1.79769313486e+308,0.0,0.0,0.0,0.05,0.0,0.0,0.0,0.0,0.0,0.0,0.0,0.0,0.0,0.0,0.0,0.0
1494527316032121167,169,1494527316407624476,gyro_link,0.0,0.0,0.0,1.0,1.79769313486e+308,0.0,0.0,0.0,1.79769313486e+308,0.0,0.0,0.0,0.05,0.0,0.0,0.0,1.79769313486e+308,0.0,0.0,0.0,1.79769313486e+308,0.0,0.0,0.0,0.05,0.0,0.0,0.0,0.0,0.0,0.0,0.0,0.0,0.0,0.0,0.0,0.0
1494527316032135884,170,1494527316427071046,gyro_link,0.0,0.0,0.0,1.0,1.79769313486e+308,0.0,0.0,0.0,1.79769313486e+308,0.0,0.0,0.0,0.05,0.0,0.0,0.0,1.79769313486e+308,0.0,0.0,0.0,1.79769313486e+308,0.0,0.0,0.0,0.05,0.0,0.0,0.0,0.0,0.0,0.0,0.0,0.0,0.0,0.0,0.0,0.0
1494527316032170003,171,1494527316447834697,gyro_link,0.0,0.0,0.0,1.0,1.79769313486e+308,0.0,0.0,0.0,1.79769313486e+308,0.0,0.0,0.0,0.05,0.0,0.0,0.0,1.79769313486e+308,0.0,0.0,0.0,1.79769313486e+308,0.0,0.0,0.0,0.05,0.0,0.0,0.0,0.0,0.0,0.0,0.0,0.0,0.0,0.0,0.0,0.0
1494527316032196417,172,1494527316468043723,gyro_link,0.0,0.0,0.0,1.0,1.79769313486e+308,0.0,0.0,0.0,1.79769313486e+308,0.0,0.0,0.0,0.05,0.0,0.0,0.0,1.79769313486e+308,0.0,0.0,0.0,1.79769313486e+308,0.0,0.0,0.0,0.05,0.0,0.0,0.0,0.0,0.0,0.0,0.0,0.0,0.0,0.0,0.0,0.0
1494527316032208266,173,1494527316488392333,gyro_link,0.0,0.0,0.0,1.0,1.79769313486e+308,0.0,0.0,0.0,1.79769313486e+308,0.0,0.0,0.0,0.05,0.0,0.0,0.0,1.79769313486e+308,0.0,0.0,0.0,1.79769313486e+308,0.0,0.0,0.0,0.05,0.0,0.0,0.0,0.0,0.0,0.0,0.0,0.0,0.0,0.0,0.0,0.0
1494527316033870380,174,1494527316508464444,gyro_link,0.0,0.0,0.0,1.0,1.79769313486e+308,0.0,0.0,0.0,1.79769313486e+308,0.0,0.0,0.0,0.05,0.0,0.0,0.0,1.79769313486e+308,0.0,0.0,0.0,1.79769313486e+308,0.0,0.0,0.0,0.05,0.0,0.0,0.0,0.0,0.0,0.0,0.0,0.0,0.0,0.0,0.0,0.0
1494527316046006558,175,1494527316528439179,gyro_link,0.0,0.0,0.0,1.0,1.79769313486e+308,0.0,0.0,0.0,1.79769313486e+308,0.0,0.0,0.0,0.05,0.0,0.0,0.0,1.79769313486e+308,0.0,0.0,0.0,1.79769313486e+308,0.0,0.0,0.0,0.05,0.0,0.0,0.0,0.0,0.0,0.0,0.0,0.0,0.0,0.0,0.0,0.0
1494527316065571033,176,1494527316547412585,gyro_link,0.0,0.0,0.0,1.0,1.79769313486e+308,0.0,0.0,0.0,1.79769313486e+308,0.0,0.0,0.0,0.05,0.0,0.0,0.0,1.79769313486e+308,0.0,0.0,0.0,1.79769313486e+308,0.0,0.0,0.0,0.05,0.0,0.0,0.0,0.0,0.0,0.0,0.0,0.0,0.0,0.0,0.0,0.0
1494527316083679885,177,1494527316567489653,gyro_link,0.0,0.0,0.0,1.0,1.79769313486e+308,0.0,0.0,0.0,1.79769313486e+308,0.0,0.0,0.0,0.05,0.0,0.0,0.0,1.79769313486e+308,0.0,0.0,0.0,1.79769313486e+308,0.0,0.0,0.0,0.05,0.0,0.0,0.0,0.0,0.0,0.0,0.0,0.0,0.0,0.0,0.0,0.0
1494527316105153058,178,1494527316587861013,gyro_link,0.0,0.0,0.0,1.0,1.79769313486e+308,0.0,0.0,0.0,1.79769313486e+308,0.0,0.0,0.0,0.05,0.0,0.0,0.0,1.79769313486e+308,0.0,0.0,0.0,1.79769313486e+308,0.0,0.0,0.0,0.05,0.0,0.0,0.0,0.0,0.0,0.0,0.0,0.0,0.0,0.0,0.0,0.0
1494527316122431106,179,1494527316607485792,gyro_link,0.0,0.0,0.0,1.0,1.79769313486e+308,0.0,0.0,0.0,1.79769313486e+308,0.0,0.0,0.0,0.05,0.0,0.0,0.0,1.79769313486e+308,0.0,0.0,0.0,1.79769313486e+308,0.0,0.0,0.0,0.05,0.0,0.0,0.0,0.0,0.0,0.0,0.0,0.0,0.0,0.0,0.0,0.0
1494527316144498026,180,1494527316628453816,gyro_link,0.0,0.0,0.0,1.0,1.79769313486e+308,0.0,0.0,0.0,1.79769313486e+308,0.0,0.0,0.0,0.05,0.0,0.0,0.0,1.79769313486e+308,0.0,0.0,0.0,1.79769313486e+308,0.0,0.0,0.0,0.05,0.0,0.0,0.0,0.0,0.0,0.0,0.0,0.0,0.0,0.0,0.0,0.0
1494527316170493558,181,1494527316651000503,gyro_link,0.0,0.0,0.0,1.0,1.79769313486e+308,0.0,0.0,0.0,1.79769313486e+308,0.0,0.0,0.0,0.05,0.0,0.0,0.0,1.79769313486e+308,0.0,0.0,0.0,1.79769313486e+308,0.0,0.0,0.0,0.05,0.0,0.0,0.0,0.0,0.0,0.0,0.0,0.0,0.0,0.0,0.0,0.0
1494527316187688909,182,1494527316667842039,gyro_link,0.0,0.0,0.0,1.0,1.79769313486e+308,0.0,0.0,0.0,1.79769313486e+308,0.0,0.0,0.0,0.05,0.0,0.0,0.0,1.79769313486e+308,0.0,0.0,0.0,1.79769313486e+308,0.0,0.0,0.0,0.05,0.0,0.0,0.0,0.0,0.0,0.0,0.0,0.0,0.0,0.0,0.0,0.0
1494527316204223637,183,1494527316687805192,gyro_link,0.0,0.0,0.0,1.0,1.79769313486e+308,0.0,0.0,0.0,1.79769313486e+308,0.0,0.0,0.0,0.05,0.0,0.0,0.0,1.79769313486e+308,0.0,0.0,0.0,1.79769313486e+308,0.0,0.0,0.0,0.05,0.0,0.0,0.0,0.0,0.0,0.0,0.0,0.0,0.0,0.0,0.0,0.0
1494527316222190932,184,1494527316707599678,gyro_link,0.0,0.0,0.0,1.0,1.79769313486e+308,0.0,0.0,0.0,1.79769313486e+308,0.0,0.0,0.0,0.05,0.0,0.0,0.0,1.79769313486e+308,0.0,0.0,0.0,1.79769313486e+308,0.0,0.0,0.0,0.05,0.0,0.0,0.0,0.0,0.0,0.0,0.0,0.0,0.0,0.0,0.0,0.0
1494527316241647963,185,1494527316727541956,gyro_link,0.0,0.0,0.0,1.0,1.79769313486e+308,0.0,0.0,0.0,1.79769313486e+308,0.0,0.0,0.0,0.05,0.0,0.0,0.0,1.79769313486e+308,0.0,0.0,0.0,1.79769313486e+308,0.0,0.0,0.0,0.05,0.0,0.0,0.0,0.0,0.0,0.0,0.0,0.0,0.0,0.0,0.0,0.0
1494527316261194229,186,1494527316747538525,gyro_link,0.0,0.0,0.0,1.0,1.79769313486e+308,0.0,0.0,0.0,1.79769313486e+308,0.0,0.0,0.0,0.05,0.0,0.0,0.0,1.79769313486e+308,0.0,0.0,0.0,1.79769313486e+308,0.0,0.0,0.0,0.05,0.0,0.0,0.0,0.0,0.0,0.0,0.0,0.0,0.0,0.0,0.0,0.0
1494527316315622460,187,1494527316768336841,gyro_link,0.0,0.0,0.0,1.0,1.79769313486e+308,0.0,0.0,0.0,1.79769313486e+308,0.0,0.0,0.0,0.05,0.0,0.0,0.0,1.79769313486e+308,0.0,0.0,0.0,1.79769313486e+308,0.0,0.0,0.0,0.05,0.0,0.0,0.0,0.0,0.0,0.0,0.0,0.0,0.0,0.0,0.0,0.0
1494527316333192106,188,1494527316788525035,gyro_link,0.0,0.0,0.0,1.0,1.79769313486e+308,0.0,0.0,0.0,1.79769313486e+308,0.0,0.0,0.0,0.05,0.0,0.0,0.0,1.79769313486e+308,0.0,0.0,0.0,1.79769313486e+308,0.0,0.0,0.0,0.05,0.0,0.0,0.0,0.0,0.0,0.0,0.0,0.0,0.0,0.0,0.0,0.0
1494527316346458575,189,1494527316812717259,gyro_link,0.0,0.0,0.0,1.0,1.79769313486e+308,0.0,0.0,0.0,1.79769313486e+308,0.0,0.0,0.0,0.05,0.0,0.0,0.0,1.79769313486e+308,0.0,0.0,0.0,1.79769313486e+308,0.0,0.0,0.0,0.05,0.0,0.0,0.0,0.0,0.0,0.0,0.0,0.0,0.0,0.0,0.0,0.0
1494527316351623666,190,1494527316830401084,gyro_link,0.0,0.0,0.0,1.0,1.79769313486e+308,0.0,0.0,0.0,1.79769313486e+308,0.0,0.0,0.0,0.05,0.0,0.0,0.0,1.79769313486e+308,0.0,0.0,0.0,1.79769313486e+308,0.0,0.0,0.0,0.05,0.0,0.0,0.0,0.0,0.0,0.0,0.0,0.0,0.0,0.0,0.0,0.0
1494527316362202562,191,1494527316847430578,gyro_link,0.0,0.0,0.0,1.0,1.79769313486e+308,0.0,0.0,0.0,1.79769313486e+308,0.0,0.0,0.0,0.05,0.0,0.0,0.0,1.79769313486e+308,0.0,0.0,0.0,1.79769313486e+308,0.0,0.0,0.0,0.05,0.0,0.0,0.0,0.0,0.0,0.0,0.0,0.0,0.0,0.0,0.0,0.0
1494527316415315401,192,1494527316868727894,gyro_link,0.0,0.0,0.0,1.0,1.79769313486e+308,0.0,0.0,0.0,1.79769313486e+308,0.0,0.0,0.0,0.05,0.0,0.0,0.0,1.79769313486e+308,0.0,0.0,0.0,1.79769313486e+308,0.0,0.0,0.0,0.05,0.0,0.0,0.0,0.0,0.0,0.0,0.0,0.0,0.0,0.0,0.0,0.0
1494527316437279445,193,1494527316888389756,gyro_link,0.0,0.0,0.0,1.0,1.79769313486e+308,0.0,0.0,0.0,1.79769313486e+308,0.0,0.0,0.0,0.05,0.0,0.0,0.0,1.79769313486e+308,0.0,0.0,0.0,1.79769313486e+308,0.0,0.0,0.0,0.05,0.0,0.0,0.0,0.0,0.0,0.0,0.0,0.0,0.0,0.0,0.0,0.0
1494527316437296519,194,1494527316907497202,gyro_link,0.0,0.0,0.0,1.0,1.79769313486e+308,0.0,0.0,0.0,1.79769313486e+308,0.0,0.0,0.0,0.05,0.0,0.0,0.0,1.79769313486e+308,0.0,0.0,0.0,1.79769313486e+308,0.0,0.0,0.0,0.05,0.0,0.0,0.0,0.0,0.0,0.0,0.0,0.0,0.0,0.0,0.0,0.0
1494527316443837596,195,1494527316928120561,gyro_link,0.0,0.0,0.0,1.0,1.79769313486e+308,0.0,0.0,0.0,1.79769313486e+308,0.0,0.0,0.0,0.05,0.0,0.0,0.0,1.79769313486e+308,0.0,0.0,0.0,1.79769313486e+308,0.0,0.0,0.0,0.05,0.0,0.0,0.0,0.0,0.0,0.0,0.0,0.0,0.0,0.0,0.0,0.0
1494527316461340331,196,1494527316947363549,gyro_link,0.0,0.0,0.0,1.0,1.79769313486e+308,0.0,0.0,0.0,1.79769313486e+308,0.0,0.0,0.0,0.05,0.0,0.0,0.0,1.79769313486e+308,0.0,0.0,0.0,1.79769313486e+308,0.0,0.0,0.0,0.05,0.0,0.0,0.0,0.0,0.0,0.0,0.0,0.0,0.0,0.0,0.0,0.0
1494527316481053962,197,1494527316967376910,gyro_link,0.0,0.0,0.0,1.0,1.79769313486e+308,0.0,0.0,0.0,1.79769313486e+308,0.0,0.0,0.0,0.05,0.0,0.0,0.0,1.79769313486e+308,0.0,0.0,0.0,1.79769313486e+308,0.0,0.0,0.0,0.05,0.0,0.0,0.0,0.0,0.0,0.0,0.0,0.0,0.0,0.0,0.0,0.0
1494527316521171856,198,1494527316998215448,gyro_link,0.0,0.0,0.0,1.0,1.79769313486e+308,0.0,0.0,0.0,1.79769313486e+308,0.0,0.0,0.0,0.05,0.0,0.0,0.0,1.79769313486e+308,0.0,0.0,0.0,1.79769313486e+308,0.0,0.0,0.0,0.05,0.0,0.0,0.0,0.0,0.0,0.0,0.0,0.0,0.0,0.0,0.0,0.0
1494527316527396605,199,1494527317008661669,gyro_link,0.0,0.0,0.0,1.0,1.79769313486e+308,0.0,0.0,0.0,1.79769313486e+308,0.0,0.0,0.0,0.05,0.0,0.0,0.0,1.79769313486e+308,0.0,0.0,0.0,1.79769313486e+308,0.0,0.0,0.0,0.05,0.0,0.0,0.0,0.0,0.0,0.0,0.0,0.0,0.0,0.0,0.0,0.0
1494527316547954343,200,1494527317028862362,gyro_link,0.0,0.0,0.0,1.0,1.79769313486e+308,0.0,0.0,0.0,1.79769313486e+308,0.0,0.0,0.0,0.05,0.0,0.0,0.0,1.79769313486e+308,0.0,0.0,0.0,1.79769313486e+308,0.0,0.0,0.0,0.05,0.0,0.0,0.0,0.0,0.0,0.0,0.0,0.0,0.0,0.0,0.0,0.0
1494527316565502661,201,1494527317051680755,gyro_link,0.0,0.0,0.0,1.0,1.79769313486e+308,0.0,0.0,0.0,1.79769313486e+308,0.0,0.0,0.0,0.05,0.0,0.0,0.0,1.79769313486e+308,0.0,0.0,0.0,1.79769313486e+308,0.0,0.0,0.0,0.05,0.0,0.0,0.0,0.0,0.0,0.0,0.0,0.0,0.0,0.0,0.0,0.0
1494527316604570148,202,1494527317069480330,gyro_link,0.0,0.0,0.0,1.0,1.79769313486e+308,0.0,0.0,0.0,1.79769313486e+308,0.0,0.0,0.0,0.05,0.0,0.0,0.0,1.79769313486e+308,0.0,0.0,0.0,1.79769313486e+308,0.0,0.0,0.0,0.05,0.0,0.0,0.0,0.0,0.0,0.0,0.0,0.0,0.0,0.0,0.0,0.0
1494527316634537957,203,1494527317088653026,gyro_link,0.0,0.0,0.0,1.0,1.79769313486e+308,0.0,0.0,0.0,1.79769313486e+308,0.0,0.0,0.0,0.05,0.0,0.0,0.0,1.79769313486e+308,0.0,0.0,0.0,1.79769313486e+308,0.0,0.0,0.0,0.05,0.0,0.0,0.0,0.0,0.0,0.0,0.0,0.0,0.0,0.0,0.0,0.0
1494527316634551460,204,1494527317108213262,gyro_link,0.0,0.0,0.0,1.0,1.79769313486e+308,0.0,0.0,0.0,1.79769313486e+308,0.0,0.0,0.0,0.05,0.0,0.0,0.0,1.79769313486e+308,0.0,0.0,0.0,1.79769313486e+308,0.0,0.0,0.0,0.05,0.0,0.0,0.0,0.0,0.0,0.0,0.0,0.0,0.0,0.0,0.0,0.0
1494527316643997020,205,1494527317128445080,gyro_link,0.0,0.0,0.0,1.0,1.79769313486e+308,0.0,0.0,0.0,1.79769313486e+308,0.0,0.0,0.0,0.05,0.0,0.0,0.0,1.79769313486e+308,0.0,0.0,0.0,1.79769313486e+308,0.0,0.0,0.0,0.05,0.0,0.0,0.0,0.0,0.0,0.0,0.0,0.0,0.0,0.0,0.0,0.0
1494527316663195934,206,1494527317148454773,gyro_link,0.0,0.0,0.0,1.0,1.79769313486e+308,0.0,0.0,0.0,1.79769313486e+308,0.0,0.0,0.0,0.05,0.0,0.0,0.0,1.79769313486e+308,0.0,0.0,0.0,1.79769313486e+308,0.0,0.0,0.0,0.05,0.0,0.0,0.0,0.0,0.0,0.0,0.0,0.0,0.0,0.0,0.0,0.0
1494527316683513866,207,1494527317168247883,gyro_link,0.0,0.0,0.0,1.0,1.79769313486e+308,0.0,0.0,0.0,1.79769313486e+308,0.0,0.0,0.0,0.05,0.0,0.0,0.0,1.79769313486e+308,0.0,0.0,0.0,1.79769313486e+308,0.0,0.0,0.0,0.05,0.0,0.0,0.0,0.0,0.0,0.0,0.0,0.0,0.0,0.0,0.0,0.0
1494527316704675781,208,1494527317189469073,gyro_link,0.0,0.0,0.0,1.0,1.79769313486e+308,0.0,0.0,0.0,1.79769313486e+308,0.0,0.0,0.0,0.05,0.0,0.0,0.0,1.79769313486e+308,0.0,0.0,0.0,1.79769313486e+308,0.0,0.0,0.0,0.05,0.0,0.0,0.0,0.0,0.0,0.0,0.0,0.0,0.0,0.0,0.0,0.0
1494527316729712569,209,1494527317208333520,gyro_link,0.0,0.0,0.0,1.0,1.79769313486e+308,0.0,0.0,0.0,1.79769313486e+308,0.0,0.0,0.0,0.05,0.0,0.0,0.0,1.79769313486e+308,0.0,0.0,0.0,1.79769313486e+308,0.0,0.0,0.0,0.05,0.0,0.0,0.0,0.0,0.0,0.0,0.0,0.0,0.0,0.0,0.0,0.0
1494527316754352210,210,1494527317228311547,gyro_link,0.0,0.0,0.0,1.0,1.79769313486e+308,0.0,0.0,0.0,1.79769313486e+308,0.0,0.0,0.0,0.05,0.0,0.0,0.0,1.79769313486e+308,0.0,0.0,0.0,1.79769313486e+308,0.0,0.0,0.0,0.05,0.0,0.0,0.0,0.0,0.0,0.0,0.0,0.0,0.0,0.0,0.0,0.0
1494527316765353499,211,1494527317249349195,gyro_link,0.0,0.0,0.0,1.0,1.79769313486e+308,0.0,0.0,0.0,1.79769313486e+308,0.0,0.0,0.0,0.05,0.0,0.0,0.0,1.79769313486e+308,0.0,0.0,0.0,1.79769313486e+308,0.0,0.0,0.0,0.05,0.0,0.0,0.0,0.0,0.0,0.0,0.0,0.0,0.0,0.0,0.0,0.0
1494527316783356984,212,1494527317268321642,gyro_link,0.0,0.0,0.0,1.0,1.79769313486e+308,0.0,0.0,0.0,1.79769313486e+308,0.0,0.0,0.0,0.05,0.0,0.0,0.0,1.79769313486e+308,0.0,0.0,0.0,1.79769313486e+308,0.0,0.0,0.0,0.05,0.0,0.0,0.0,0.0,0.0,0.0,0.0,0.0,0.0,0.0,0.0,0.0
1494527316805996970,213,1494527317290140497,gyro_link,0.0,0.0,0.0,1.0,1.79769313486e+308,0.0,0.0,0.0,1.79769313486e+308,0.0,0.0,0.0,0.05,0.0,0.0,0.0,1.79769313486e+308,0.0,0.0,0.0,1.79769313486e+308,0.0,0.0,0.0,0.05,0.0,0.0,0.0,0.0,0.0,0.0,0.0,0.0,0.0,0.0,0.0,0.0
1494527316823320570,214,1494527317308176862,gyro_link,0.0,0.0,0.0,1.0,1.79769313486e+308,0.0,0.0,0.0,1.79769313486e+308,0.0,0.0,0.0,0.05,0.0,0.0,0.0,1.79769313486e+308,0.0,0.0,0.0,1.79769313486e+308,0.0,0.0,0.0,0.05,0.0,0.0,0.0,0.0,0.0,0.0,0.0,0.0,0.0,0.0,0.0,0.0
1494527316843607837,215,1494527317328683346,gyro_link,0.0,0.0,0.0,1.0,1.79769313486e+308,0.0,0.0,0.0,1.79769313486e+308,0.0,0.0,0.0,0.05,0.0,0.0,0.0,1.79769313486e+308,0.0,0.0,0.0,1.79769313486e+308,0.0,0.0,0.0,0.05,0.0,0.0,0.0,0.0,0.0,0.0,0.0,0.0,0.0,0.0,0.0,0.0
1494527316863298266,216,1494527317348531748,gyro_link,0.0,0.0,0.0,1.0,1.79769313486e+308,0.0,0.0,0.0,1.79769313486e+308,0.0,0.0,0.0,0.05,0.0,0.0,0.0,1.79769313486e+308,0.0,0.0,0.0,1.79769313486e+308,0.0,0.0,0.0,0.05,0.0,0.0,0.0,0.0,0.0,0.0,0.0,0.0,0.0,0.0,0.0,0.0
1494527316892343945,217,1494527317368969565,gyro_link,0.0,0.0,0.0,1.0,1.79769313486e+308,0.0,0.0,0.0,1.79769313486e+308,0.0,0.0,0.0,0.05,0.0,0.0,0.0,1.79769313486e+308,0.0,0.0,0.0,1.79769313486e+308,0.0,0.0,0.0,0.05,0.0,0.0,0.0,0.0,0.0,0.0,0.0,0.0,0.0,0.0,0.0,0.0
1494527316906839154,218,1494527317390258130,gyro_link,0.0,0.0,0.0,1.0,1.79769313486e+308,0.0,0.0,0.0,1.79769313486e+308,0.0,0.0,0.0,0.05,0.0,0.0,0.0,1.79769313486e+308,0.0,0.0,0.0,1.79769313486e+308,0.0,0.0,0.0,0.05,0.0,0.0,0.0,0.0,0.0,0.0,0.0,0.0,0.0,0.0,0.0,0.0
1494527316925124116,219,1494527317408630994,gyro_link,0.0,0.0,0.0,1.0,1.79769313486e+308,0.0,0.0,0.0,1.79769313486e+308,0.0,0.0,0.0,0.05,0.0,0.0,0.0,1.79769313486e+308,0.0,0.0,0.0,1.79769313486e+308,0.0,0.0,0.0,0.05,0.0,0.0,0.0,0.0,0.0,0.0,0.0,0.0,0.0,0.0,0.0,0.0
1494527316944181629,220,1494527317428558271,gyro_link,0.0,0.0,0.0,1.0,1.79769313486e+308,0.0,0.0,0.0,1.79769313486e+308,0.0,0.0,0.0,0.05,0.0,0.0,0.0,1.79769313486e+308,0.0,0.0,0.0,1.79769313486e+308,0.0,0.0,0.0,0.05,0.0,0.0,0.0,0.0,0.0,0.0,0.0,0.0,0.0,0.0,0.0,0.0
1494527316965490653,221,1494527317448259007,gyro_link,0.0,0.0,0.0,1.0,1.79769313486e+308,0.0,0.0,0.0,1.79769313486e+308,0.0,0.0,0.0,0.05,0.0,0.0,0.0,1.79769313486e+308,0.0,0.0,0.0,1.79769313486e+308,0.0,0.0,0.0,0.05,0.0,0.0,0.0,0.0,0.0,0.0,0.0,0.0,0.0,0.0,0.0,0.0
1494527316984492975,222,1494527317468704241,gyro_link,0.0,0.0,0.0,1.0,1.79769313486e+308,0.0,0.0,0.0,1.79769313486e+308,0.0,0.0,0.0,0.05,0.0,0.0,0.0,1.79769313486e+308,0.0,0.0,0.0,1.79769313486e+308,0.0,0.0,0.0,0.05,0.0,0.0,0.0,0.0,0.0,0.0,0.0,0.0,0.0,0.0,0.0,0.0
1494527317006072029,223,1494527317488303060,gyro_link,0.0,0.0,0.0,1.0,1.79769313486e+308,0.0,0.0,0.0,1.79769313486e+308,0.0,0.0,0.0,0.05,0.0,0.0,0.0,1.79769313486e+308,0.0,0.0,0.0,1.79769313486e+308,0.0,0.0,0.0,0.05,0.0,0.0,0.0,0.0,0.0,0.0,0.0,0.0,0.0,0.0,0.0,0.0
1494527317036557186,224,1494527317509108710,gyro_link,0.0,0.0,0.0,1.0,1.79769313486e+308,0.0,0.0,0.0,1.79769313486e+308,0.0,0.0,0.0,0.05,0.0,0.0,0.0,1.79769313486e+308,0.0,0.0,0.0,1.79769313486e+308,0.0,0.0,0.0,0.05,0.0,0.0,0.0,0.0,0.0,0.0,0.0,0.0,0.0,0.0,0.0,0.0
1494527317047502546,225,1494527317528127572,gyro_link,0.0,0.0,0.0,1.0,1.79769313486e+308,0.0,0.0,0.0,1.79769313486e+308,0.0,0.0,0.0,0.05,0.0,0.0,0.0,1.79769313486e+308,0.0,0.0,0.0,1.79769313486e+308,0.0,0.0,0.0,0.05,0.0,0.0,0.0,0.0,0.0,0.0,0.0,0.0,0.0,0.0,0.0,0.0
1494527317063323784,226,1494527317548248724,gyro_link,0.0,0.0,0.0,1.0,1.79769313486e+308,0.0,0.0,0.0,1.79769313486e+308,0.0,0.0,0.0,0.05,0.0,0.0,0.0,1.79769313486e+308,0.0,0.0,0.0,1.79769313486e+308,0.0,0.0,0.0,0.05,0.0,0.0,0.0,0.0,0.0,0.0,0.0,0.0,0.0,0.0,0.0,0.0
1494527317084398565,227,1494527317569198539,gyro_link,0.0,0.0,0.0,1.0,1.79769313486e+308,0.0,0.0,0.0,1.79769313486e+308,0.0,0.0,0.0,0.05,0.0,0.0,0.0,1.79769313486e+308,0.0,0.0,0.0,1.79769313486e+308,0.0,0.0,0.0,0.05,0.0,0.0,0.0,0.0,0.0,0.0,0.0,0.0,0.0,0.0,0.0,0.0
1494527317104490846,228,1494527317589032025,gyro_link,0.0,0.0,0.0,1.0,1.79769313486e+308,0.0,0.0,0.0,1.79769313486e+308,0.0,0.0,0.0,0.05,0.0,0.0,0.0,1.79769313486e+308,0.0,0.0,0.0,1.79769313486e+308,0.0,0.0,0.0,0.05,0.0,0.0,0.0,0.0,0.0,0.0,0.0,0.0,0.0,0.0,0.0,0.0
1494527317129388501,229,1494527317609222968,gyro_link,0.0,0.0,0.0,1.0,1.79769313486e+308,0.0,0.0,0.0,1.79769313486e+308,0.0,0.0,0.0,0.05,0.0,0.0,0.0,1.79769313486e+308,0.0,0.0,0.0,1.79769313486e+308,0.0,0.0,0.0,0.05,0.0,0.0,0.0,0.0,0.0,0.0,0.0,0.0,0.0,0.0,0.0,0.0
1494527317147375718,230,1494527317629744701,gyro_link,0.0,0.0,0.0,1.0,1.79769313486e+308,0.0,0.0,0.0,1.79769313486e+308,0.0,0.0,0.0,0.05,0.0,0.0,0.0,1.79769313486e+308,0.0,0.0,0.0,1.79769313486e+308,0.0,0.0,0.0,0.05,0.0,0.0,0.0,0.0,0.0,0.0,0.0,0.0,0.0,0.0,0.0,0.0
1494527317169030937,231,1494527317650011852,gyro_link,0.0,0.0,0.0,1.0,1.79769313486e+308,0.0,0.0,0.0,1.79769313486e+308,0.0,0.0,0.0,0.05,0.0,0.0,0.0,1.79769313486e+308,0.0,0.0,0.0,1.79769313486e+308,0.0,0.0,0.0,0.05,0.0,0.0,0.0,0.0,0.0,0.0,0.0,0.0,0.0,0.0,0.0,0.0
1494527317183163093,232,1494527317668209176,gyro_link,0.0,0.0,0.0,1.0,1.79769313486e+308,0.0,0.0,0.0,1.79769313486e+308,0.0,0.0,0.0,0.05,0.0,0.0,0.0,1.79769313486e+308,0.0,0.0,0.0,1.79769313486e+308,0.0,0.0,0.0,0.05,0.0,0.0,0.0,0.0,0.0,0.0,0.0,0.0,0.0,0.0,0.0,0.0
1494527317207702973,233,1494527317688154619,gyro_link,0.0,0.0,0.0,1.0,1.79769313486e+308,0.0,0.0,0.0,1.79769313486e+308,0.0,0.0,0.0,0.05,0.0,0.0,0.0,1.79769313486e+308,0.0,0.0,0.0,1.79769313486e+308,0.0,0.0,0.0,0.05,0.0,0.0,0.0,0.0,0.0,0.0,0.0,0.0,0.0,0.0,0.0,0.0
1494527317224013130,234,1494527317709295726,gyro_link,0.0,0.0,0.0,1.0,1.79769313486e+308,0.0,0.0,0.0,1.79769313486e+308,0.0,0.0,0.0,0.05,0.0,0.0,0.0,1.79769313486e+308,0.0,0.0,0.0,1.79769313486e+308,0.0,0.0,0.0,0.05,0.0,0.0,0.0,0.0,0.0,0.0,0.0,0.0,0.0,0.0,0.0,0.0
1494527317244219117,235,1494527317729295711,gyro_link,0.0,0.0,0.0,1.0,1.79769313486e+308,0.0,0.0,0.0,1.79769313486e+308,0.0,0.0,0.0,0.05,0.0,0.0,0.0,1.79769313486e+308,0.0,0.0,0.0,1.79769313486e+308,0.0,0.0,0.0,0.05,0.0,0.0,0.0,0.0,0.0,0.0,0.0,0.0,0.0,0.0,0.0,0.0
1494527317267642623,236,1494527317749901694,gyro_link,0.0,0.0,0.0,1.0,1.79769313486e+308,0.0,0.0,0.0,1.79769313486e+308,0.0,0.0,0.0,0.05,0.0,0.0,0.0,1.79769313486e+308,0.0,0.0,0.0,1.79769313486e+308,0.0,0.0,0.0,0.05,0.0,0.0,0.0,0.0,0.0,0.0,0.0,0.0,0.0,0.0,0.0,0.0
1494527317284999648,237,1494527317769441347,gyro_link,0.0,0.0,0.0,1.0,1.79769313486e+308,0.0,0.0,0.0,1.79769313486e+308,0.0,0.0,0.0,0.05,0.0,0.0,0.0,1.79769313486e+308,0.0,0.0,0.0,1.79769313486e+308,0.0,0.0,0.0,0.05,0.0,0.0,0.0,0.0,0.0,0.0,0.0,0.0,0.0,0.0,0.0,0.0
1494527317309817542,238,1494527317789341457,gyro_link,0.0,0.0,0.0,1.0,1.79769313486e+308,0.0,0.0,0.0,1.79769313486e+308,0.0,0.0,0.0,0.05,0.0,0.0,0.0,1.79769313486e+308,0.0,0.0,0.0,1.79769313486e+308,0.0,0.0,0.0,0.05,0.0,0.0,0.0,0.0,0.0,0.0,0.0,0.0,0.0,0.0,0.0,0.0
1494527317324159813,239,1494527317809045610,gyro_link,0.0,0.0,0.0,1.0,1.79769313486e+308,0.0,0.0,0.0,1.79769313486e+308,0.0,0.0,0.0,0.05,0.0,0.0,0.0,1.79769313486e+308,0.0,0.0,0.0,1.79769313486e+308,0.0,0.0,0.0,0.05,0.0,0.0,0.0,0.0,0.0,0.0,0.0,0.0,0.0,0.0,0.0,0.0
1494527317346729553,240,1494527317829186053,gyro_link,0.0,0.0,0.0,1.0,1.79769313486e+308,0.0,0.0,0.0,1.79769313486e+308,0.0,0.0,0.0,0.05,0.0,0.0,0.0,1.79769313486e+308,0.0,0.0,0.0,1.79769313486e+308,0.0,0.0,0.0,0.05,0.0,0.0,0.0,0.0,0.0,0.0,0.0,0.0,0.0,0.0,0.0,0.0
1494527317365603886,241,1494527317849188705,gyro_link,0.0,0.0,0.0,1.0,1.79769313486e+308,0.0,0.0,0.0,1.79769313486e+308,0.0,0.0,0.0,0.05,0.0,0.0,0.0,1.79769313486e+308,0.0,0.0,0.0,1.79769313486e+308,0.0,0.0,0.0,0.05,0.0,0.0,0.0,0.0,0.0,0.0,0.0,0.0,0.0,0.0,0.0,0.0
1494527317386097969,242,1494527317869926729,gyro_link,0.0,0.0,0.0,1.0,1.79769313486e+308,0.0,0.0,0.0,1.79769313486e+308,0.0,0.0,0.0,0.05,0.0,0.0,0.0,1.79769313486e+308,0.0,0.0,0.0,1.79769313486e+308,0.0,0.0,0.0,0.05,0.0,0.0,0.0,0.0,0.0,0.0,0.0,0.0,0.0,0.0,0.0,0.0
1494527317405481233,243,1494527317889974589,gyro_link,0.0,0.0,0.0,1.0,1.79769313486e+308,0.0,0.0,0.0,1.79769313486e+308,0.0,0.0,0.0,0.05,0.0,0.0,0.0,1.79769313486e+308,0.0,0.0,0.0,1.79769313486e+308,0.0,0.0,0.0,0.05,0.0,0.0,0.0,0.0,0.0,0.0,0.0,0.0,0.0,0.0,0.0,0.0
1494527317425767237,244,1494527317909659825,gyro_link,0.0,0.0,0.0,1.0,1.79769313486e+308,0.0,0.0,0.0,1.79769313486e+308,0.0,0.0,0.0,0.05,0.0,0.0,0.0,1.79769313486e+308,0.0,0.0,0.0,1.79769313486e+308,0.0,0.0,0.0,0.05,0.0,0.0,0.0,0.0,0.0,0.0,0.0,0.0,0.0,0.0,0.0,0.0
1494527317451282391,245,1494527317930075975,gyro_link,0.0,0.0,0.0,1.0,1.79769313486e+308,0.0,0.0,0.0,1.79769313486e+308,0.0,0.0,0.0,0.05,0.0,0.0,0.0,1.79769313486e+308,0.0,0.0,0.0,1.79769313486e+308,0.0,0.0,0.0,0.05,0.0,0.0,0.0,0.0,0.0,0.0,0.0,0.0,0.0,0.0,0.0,0.0
1494527317466077949,246,1494527317950382543,gyro_link,0.0,0.0,0.0,1.0,1.79769313486e+308,0.0,0.0,0.0,1.79769313486e+308,0.0,0.0,0.0,0.05,0.0,0.0,0.0,1.79769313486e+308,0.0,0.0,0.0,1.79769313486e+308,0.0,0.0,0.0,0.05,0.0,0.0,0.0,0.0,0.0,0.0,0.0,0.0,0.0,0.0,0.0,0.0
1494527317483340070,247,1494527317969128198,gyro_link,0.0,0.0,0.0,1.0,1.79769313486e+308,0.0,0.0,0.0,1.79769313486e+308,0.0,0.0,0.0,0.05,0.0,0.0,0.0,1.79769313486e+308,0.0,0.0,0.0,1.79769313486e+308,0.0,0.0,0.0,0.05,0.0,0.0,0.0,0.0,0.0,0.0,0.0,0.0,0.0,0.0,0.0,0.0
1494527317504641630,248,1494527317989139267,gyro_link,0.0,0.0,0.0,1.0,1.79769313486e+308,0.0,0.0,0.0,1.79769313486e+308,0.0,0.0,0.0,0.05,0.0,0.0,0.0,1.79769313486e+308,0.0,0.0,0.0,1.79769313486e+308,0.0,0.0,0.0,0.05,0.0,0.0,0.0,0.0,0.0,0.0,0.0,0.0,0.0,0.0,0.0,0.0
1494527317523830999,249,1494527318009212626,gyro_link,0.0,0.0,0.0,1.0,1.79769313486e+308,0.0,0.0,0.0,1.79769313486e+308,0.0,0.0,0.0,0.05,0.0,0.0,0.0,1.79769313486e+308,0.0,0.0,0.0,1.79769313486e+308,0.0,0.0,0.0,0.05,0.0,0.0,0.0,0.0,0.0,0.0,0.0,0.0,0.0,0.0,0.0,0.0
1494527317543814691,250,1494527318029228819,gyro_link,0.0,0.0,0.0,1.0,1.79769313486e+308,0.0,0.0,0.0,1.79769313486e+308,0.0,0.0,0.0,0.05,0.0,0.0,0.0,1.79769313486e+308,0.0,0.0,0.0,1.79769313486e+308,0.0,0.0,0.0,0.05,0.0,0.0,0.0,0.0,0.0,0.0,0.0,0.0,0.0,0.0,0.0,0.0
1494527317564466153,251,1494527318049489302,gyro_link,0.0,0.0,0.0,1.0,1.79769313486e+308,0.0,0.0,0.0,1.79769313486e+308,0.0,0.0,0.0,0.05,0.0,0.0,0.0,1.79769313486e+308,0.0,0.0,0.0,1.79769313486e+308,0.0,0.0,0.0,0.05,0.0,0.0,0.0,0.0,0.0,0.0,0.0,0.0,0.0,0.0,0.0,0.0
1494527317584798426,252,1494527318069074454,gyro_link,0.0,0.0,0.0,1.0,1.79769313486e+308,0.0,0.0,0.0,1.79769313486e+308,0.0,0.0,0.0,0.05,0.0,0.0,0.0,1.79769313486e+308,0.0,0.0,0.0,1.79769313486e+308,0.0,0.0,0.0,0.05,0.0,0.0,0.0,0.0,0.0,0.0,0.0,0.0,0.0,0.0,0.0,0.0
1494527317604208839,253,1494527318089070897,gyro_link,0.0,0.0,0.0,1.0,1.79769313486e+308,0.0,0.0,0.0,1.79769313486e+308,0.0,0.0,0.0,0.05,0.0,0.0,0.0,1.79769313486e+308,0.0,0.0,0.0,1.79769313486e+308,0.0,0.0,0.0,0.05,0.0,0.0,0.0,0.0,0.0,0.0,0.0,0.0,0.0,0.0,0.0,0.0
1494527317623665487,254,1494527318109448880,gyro_link,0.0,0.0,0.0,1.0,1.79769313486e+308,0.0,0.0,0.0,1.79769313486e+308,0.0,0.0,0.0,0.05,0.0,0.0,0.0,1.79769313486e+308,0.0,0.0,0.0,1.79769313486e+308,0.0,0.0,0.0,0.05,0.0,0.0,0.0,0.0,0.0,0.0,0.0,0.0,0.0,0.0,0.0,0.0
1494527317645581799,255,1494527318130640986,gyro_link,0.0,0.0,0.0,1.0,1.79769313486e+308,0.0,0.0,0.0,1.79769313486e+308,0.0,0.0,0.0,0.05,0.0,0.0,0.0,1.79769313486e+308,0.0,0.0,0.0,1.79769313486e+308,0.0,0.0,0.0,0.05,0.0,0.0,0.0,0.0,0.0,0.0,0.0,0.0,0.0,0.0,0.0,0.0
1494527317668458971,256,1494527318152397591,gyro_link,0.0,0.0,0.0,1.0,1.79769313486e+308,0.0,0.0,0.0,1.79769313486e+308,0.0,0.0,0.0,0.05,0.0,0.0,0.0,1.79769313486e+308,0.0,0.0,0.0,1.79769313486e+308,0.0,0.0,0.0,0.05,0.0,0.0,0.0,0.0,0.0,0.0,0.0,0.0,0.0,0.0,0.0,0.0
1494527317686942547,257,1494527318170309706,gyro_link,0.0,0.0,0.0,1.0,1.79769313486e+308,0.0,0.0,0.0,1.79769313486e+308,0.0,0.0,0.0,0.05,0.0,0.0,0.0,1.79769313486e+308,0.0,0.0,0.0,1.79769313486e+308,0.0,0.0,0.0,0.05,0.0,0.0,0.0,0.0,0.0,0.0,0.0,0.0,0.0,0.0,0.0,0.0
1494527317706554731,258,1494527318190681856,gyro_link,0.0,0.0,0.0,1.0,1.79769313486e+308,0.0,0.0,0.0,1.79769313486e+308,0.0,0.0,0.0,0.05,0.0,0.0,0.0,1.79769313486e+308,0.0,0.0,0.0,1.79769313486e+308,0.0,0.0,0.0,0.05,0.0,0.0,0.0,0.0,0.0,0.0,0.0,0.0,0.0,0.0,0.0,0.0
1494527317725475534,259,1494527318210274133,gyro_link,0.0,0.0,0.0,1.0,1.79769313486e+308,0.0,0.0,0.0,1.79769313486e+308,0.0,0.0,0.0,0.05,0.0,0.0,0.0,1.79769313486e+308,0.0,0.0,0.0,1.79769313486e+308,0.0,0.0,0.0,0.05,0.0,0.0,0.0,0.0,0.0,0.0,0.0,0.0,0.0,0.0,0.0,0.0
1494527317743881926,260,1494527318228915455,gyro_link,0.0,0.0,0.0,1.0,1.79769313486e+308,0.0,0.0,0.0,1.79769313486e+308,0.0,0.0,0.0,0.05,0.0,0.0,0.0,1.79769313486e+308,0.0,0.0,0.0,1.79769313486e+308,0.0,0.0,0.0,0.05,0.0,0.0,0.0,0.0,0.0,0.0,0.0,0.0,0.0,0.0,0.0,0.0
1494527317764555763,261,1494527318249128938,gyro_link,0.0,0.0,0.0,1.0,1.79769313486e+308,0.0,0.0,0.0,1.79769313486e+308,0.0,0.0,0.0,0.05,0.0,0.0,0.0,1.79769313486e+308,0.0,0.0,0.0,1.79769313486e+308,0.0,0.0,0.0,0.05,0.0,0.0,0.0,0.0,0.0,0.0,0.0,0.0,0.0,0.0,0.0,0.0
1494527317786872168,262,1494527318270151336,gyro_link,0.0,0.0,0.0,1.0,1.79769313486e+308,0.0,0.0,0.0,1.79769313486e+308,0.0,0.0,0.0,0.05,0.0,0.0,0.0,1.79769313486e+308,0.0,0.0,0.0,1.79769313486e+308,0.0,0.0,0.0,0.05,0.0,0.0,0.0,0.0,0.0,0.0,0.0,0.0,0.0,0.0,0.0,0.0
1494527317805299886,263,1494527318289245823,gyro_link,0.0,0.0,0.0,1.0,1.79769313486e+308,0.0,0.0,0.0,1.79769313486e+308,0.0,0.0,0.0,0.05,0.0,0.0,0.0,1.79769313486e+308,0.0,0.0,0.0,1.79769313486e+308,0.0,0.0,0.0,0.05,0.0,0.0,0.0,0.0,0.0,0.0,0.0,0.0,0.0,0.0,0.0,0.0
1494527317825123234,264,1494527318309119600,gyro_link,0.0,0.0,0.0,1.0,1.79769313486e+308,0.0,0.0,0.0,1.79769313486e+308,0.0,0.0,0.0,0.05,0.0,0.0,0.0,1.79769313486e+308,0.0,0.0,0.0,1.79769313486e+308,0.0,0.0,0.0,0.05,0.0,0.0,0.0,0.0,0.0,0.0,0.0,0.0,0.0,0.0,0.0,0.0
1494527317846024168,265,1494527318330094581,gyro_link,0.0,0.0,0.0,1.0,1.79769313486e+308,0.0,0.0,0.0,1.79769313486e+308,0.0,0.0,0.0,0.05,0.0,0.0,0.0,1.79769313486e+308,0.0,0.0,0.0,1.79769313486e+308,0.0,0.0,0.0,0.05,0.0,0.0,0.0,0.0,0.0,0.0,0.0,0.0,0.0,0.0,0.0,0.0
1494527317864362003,266,1494527318350231982,gyro_link,0.0,0.0,0.0,1.0,1.79769313486e+308,0.0,0.0,0.0,1.79769313486e+308,0.0,0.0,0.0,0.05,0.0,0.0,0.0,1.79769313486e+308,0.0,0.0,0.0,1.79769313486e+308,0.0,0.0,0.0,0.05,0.0,0.0,0.0,0.0,0.0,0.0,0.0,0.0,0.0,0.0,0.0,0.0
1494527317888291019,267,1494527318371463171,gyro_link,0.0,0.0,0.0,1.0,1.79769313486e+308,0.0,0.0,0.0,1.79769313486e+308,0.0,0.0,0.0,0.05,0.0,0.0,0.0,1.79769313486e+308,0.0,0.0,0.0,1.79769313486e+308,0.0,0.0,0.0,0.05,0.0,0.0,0.0,0.0,0.0,0.0,0.0,0.0,0.0,0.0,0.0,0.0
1494527317905061771,268,1494527318389952035,gyro_link,0.0,0.0,0.0,1.0,1.79769313486e+308,0.0,0.0,0.0,1.79769313486e+308,0.0,0.0,0.0,0.05,0.0,0.0,0.0,1.79769313486e+308,0.0,0.0,0.0,1.79769313486e+308,0.0,0.0,0.0,0.05,0.0,0.0,0.0,0.0,0.0,0.0,0.0,0.0,0.0,0.0,0.0,0.0
1494527317926440995,269,1494527318410108560,gyro_link,0.0,0.0,0.0,1.0,1.79769313486e+308,0.0,0.0,0.0,1.79769313486e+308,0.0,0.0,0.0,0.05,0.0,0.0,0.0,1.79769313486e+308,0.0,0.0,0.0,1.79769313486e+308,0.0,0.0,0.0,0.05,0.0,0.0,0.0,0.0,0.0,0.0,0.0,0.0,0.0,0.0,0.0,0.0
1494527317944863245,270,1494527318430084919,gyro_link,0.0,0.0,0.0,1.0,1.79769313486e+308,0.0,0.0,0.0,1.79769313486e+308,0.0,0.0,0.0,0.05,0.0,0.0,0.0,1.79769313486e+308,0.0,0.0,0.0,1.79769313486e+308,0.0,0.0,0.0,0.05,0.0,0.0,0.0,0.0,0.0,0.0,0.0,0.0,0.0,0.0,0.0,0.0
1494527317965882579,271,1494527318450195362,gyro_link,0.0,0.0,0.0,1.0,1.79769313486e+308,0.0,0.0,0.0,1.79769313486e+308,0.0,0.0,0.0,0.05,0.0,0.0,0.0,1.79769313486e+308,0.0,0.0,0.0,1.79769313486e+308,0.0,0.0,0.0,0.05,0.0,0.0,0.0,0.0,0.0,0.0,0.0,0.0,0.0,0.0,0.0,0.0
1494527317988005962,272,1494527318471092552,gyro_link,0.0,0.0,0.0,1.0,1.79769313486e+308,0.0,0.0,0.0,1.79769313486e+308,0.0,0.0,0.0,0.05,0.0,0.0,0.0,1.79769313486e+308,0.0,0.0,0.0,1.79769313486e+308,0.0,0.0,0.0,0.05,0.0,0.0,0.0,0.0,0.0,0.0,0.0,0.0,0.0,0.0,0.0,0.0
1494527318005821487,273,1494527318490206080,gyro_link,0.0,0.0,0.0,1.0,1.79769313486e+308,0.0,0.0,0.0,1.79769313486e+308,0.0,0.0,0.0,0.05,0.0,0.0,0.0,1.79769313486e+308,0.0,0.0,0.0,1.79769313486e+308,0.0,0.0,0.0,0.05,0.0,0.0,0.0,0.0,0.0,0.0,0.0,0.0,0.0,0.0,0.0,0.0
1494527318027895989,274,1494527318511373895,gyro_link,0.0,0.0,0.0,1.0,1.79769313486e+308,0.0,0.0,0.0,1.79769313486e+308,0.0,0.0,0.0,0.05,0.0,0.0,0.0,1.79769313486e+308,0.0,0.0,0.0,1.79769313486e+308,0.0,0.0,0.0,0.05,0.0,0.0,0.0,0.0,0.0,0.0,0.0,0.0,0.0,0.0,0.0,0.0
1494527318047130635,275,1494527318530221382,gyro_link,0.0,0.0,0.0,1.0,1.79769313486e+308,0.0,0.0,0.0,1.79769313486e+308,0.0,0.0,0.0,0.05,0.0,0.0,0.0,1.79769313486e+308,0.0,0.0,0.0,1.79769313486e+308,0.0,0.0,0.0,0.05,0.0,0.0,0.0,0.0,0.0,0.0,0.0,0.0,0.0,0.0,0.0,0.0
1494527318064743337,276,1494527318550118492,gyro_link,0.0,0.0,0.0,1.0,1.79769313486e+308,0.0,0.0,0.0,1.79769313486e+308,0.0,0.0,0.0,0.05,0.0,0.0,0.0,1.79769313486e+308,0.0,0.0,0.0,1.79769313486e+308,0.0,0.0,0.0,0.05,0.0,0.0,0.0,0.0,0.0,0.0,0.0,0.0,0.0,0.0,0.0,0.0
1494527318085059073,277,1494527318570192226,gyro_link,0.0,0.0,0.0,1.0,1.79769313486e+308,0.0,0.0,0.0,1.79769313486e+308,0.0,0.0,0.0,0.05,0.0,0.0,0.0,1.79769313486e+308,0.0,0.0,0.0,1.79769313486e+308,0.0,0.0,0.0,0.05,0.0,0.0,0.0,0.0,0.0,0.0,0.0,0.0,0.0,0.0,0.0,0.0
1494527318109371560,278,1494527318590942375,gyro_link,0.0,0.0,0.0,1.0,1.79769313486e+308,0.0,0.0,0.0,1.79769313486e+308,0.0,0.0,0.0,0.05,0.0,0.0,0.0,1.79769313486e+308,0.0,0.0,0.0,1.79769313486e+308,0.0,0.0,0.0,0.05,0.0,0.0,0.0,0.0,0.0,0.0,0.0,0.0,0.0,0.0,0.0,0.0
1494527318128909805,279,1494527318610734735,gyro_link,0.0,0.0,0.0,1.0,1.79769313486e+308,0.0,0.0,0.0,1.79769313486e+308,0.0,0.0,0.0,0.05,0.0,0.0,0.0,1.79769313486e+308,0.0,0.0,0.0,1.79769313486e+308,0.0,0.0,0.0,0.05,0.0,0.0,0.0,0.0,0.0,0.0,0.0,0.0,0.0,0.0,0.0,0.0
1494527318147293536,280,1494527318630368304,gyro_link,0.0,0.0,0.0,1.0,1.79769313486e+308,0.0,0.0,0.0,1.79769313486e+308,0.0,0.0,0.0,0.05,0.0,0.0,0.0,1.79769313486e+308,0.0,0.0,0.0,1.79769313486e+308,0.0,0.0,0.0,0.05,0.0,0.0,0.0,0.0,0.0,0.0,0.0,0.0,0.0,0.0,0.0,0.0
1494527318168094280,281,1494527318650960161,gyro_link,0.0,0.0,0.0,1.0,1.79769313486e+308,0.0,0.0,0.0,1.79769313486e+308,0.0,0.0,0.0,0.05,0.0,0.0,0.0,1.79769313486e+308,0.0,0.0,0.0,1.79769313486e+308,0.0,0.0,0.0,0.05,0.0,0.0,0.0,0.0,0.0,0.0,0.0,0.0,0.0,0.0,0.0,0.0
1494527318184079416,282,1494527318670070190,gyro_link,0.0,0.0,0.0,1.0,1.79769313486e+308,0.0,0.0,0.0,1.79769313486e+308,0.0,0.0,0.0,0.05,0.0,0.0,0.0,1.79769313486e+308,0.0,0.0,0.0,1.79769313486e+308,0.0,0.0,0.0,0.05,0.0,0.0,0.0,0.0,0.0,0.0,0.0,0.0,0.0,0.0,0.0,0.0
1494527318204579670,283,1494527318689999758,gyro_link,0.0,0.0,0.0,1.0,1.79769313486e+308,0.0,0.0,0.0,1.79769313486e+308,0.0,0.0,0.0,0.05,0.0,0.0,0.0,1.79769313486e+308,0.0,0.0,0.0,1.79769313486e+308,0.0,0.0,0.0,0.05,0.0,0.0,0.0,0.0,0.0,0.0,0.0,0.0,0.0,0.0,0.0,0.0
1494527318230891176,284,1494527318711213947,gyro_link,0.0,0.0,0.0,1.0,1.79769313486e+308,0.0,0.0,0.0,1.79769313486e+308,0.0,0.0,0.0,0.05,0.0,0.0,0.0,1.79769313486e+308,0.0,0.0,0.0,1.79769313486e+308,0.0,0.0,0.0,0.05,0.0,0.0,0.0,0.0,0.0,0.0,0.0,0.0,0.0,0.0,0.0,0.0
1494527318247145841,285,1494527318730549100,gyro_link,0.0,0.0,0.0,1.0,1.79769313486e+308,0.0,0.0,0.0,1.79769313486e+308,0.0,0.0,0.0,0.05,0.0,0.0,0.0,1.79769313486e+308,0.0,0.0,0.0,1.79769313486e+308,0.0,0.0,0.0,0.05,0.0,0.0,0.0,0.0,0.0,0.0,0.0,0.0,0.0,0.0,0.0,0.0
1494527318268112528,286,1494527318751412998,gyro_link,0.0,0.0,0.0,1.0,1.79769313486e+308,0.0,0.0,0.0,1.79769313486e+308,0.0,0.0,0.0,0.05,0.0,0.0,0.0,1.79769313486e+308,0.0,0.0,0.0,1.79769313486e+308,0.0,0.0,0.0,0.05,0.0,0.0,0.0,0.0,0.0,0.0,0.0,0.0,0.0,0.0,0.0,0.0
1494527318287224334,287,1494527318770888901,gyro_link,0.0,0.0,0.0,1.0,1.79769313486e+308,0.0,0.0,0.0,1.79769313486e+308,0.0,0.0,0.0,0.05,0.0,0.0,0.0,1.79769313486e+308,0.0,0.0,0.0,1.79769313486e+308,0.0,0.0,0.0,0.05,0.0,0.0,0.0,0.0,0.0,0.0,0.0,0.0,0.0,0.0,0.0,0.0
1494527318306535684,288,1494527318790654011,gyro_link,0.0,0.0,0.0,1.0,1.79769313486e+308,0.0,0.0,0.0,1.79769313486e+308,0.0,0.0,0.0,0.05,0.0,0.0,0.0,1.79769313486e+308,0.0,0.0,0.0,1.79769313486e+308,0.0,0.0,0.0,0.05,0.0,0.0,0.0,0.0,0.0,0.0,0.0,0.0,0.0,0.0,0.0,0.0
1494527318326612753,289,1494527318810639078,gyro_link,0.0,0.0,0.0,1.0,1.79769313486e+308,0.0,0.0,0.0,1.79769313486e+308,0.0,0.0,0.0,0.05,0.0,0.0,0.0,1.79769313486e+308,0.0,0.0,0.0,1.79769313486e+308,0.0,0.0,0.0,0.05,0.0,0.0,0.0,0.0,0.0,0.0,0.0,0.0,0.0,0.0,0.0,0.0
1494527318345728757,290,1494527318829717732,gyro_link,0.0,0.0,0.0,1.0,1.79769313486e+308,0.0,0.0,0.0,1.79769313486e+308,0.0,0.0,0.0,0.05,0.0,0.0,0.0,1.79769313486e+308,0.0,0.0,0.0,1.79769313486e+308,0.0,0.0,0.0,0.05,0.0,0.0,0.0,0.0,0.0,0.0,0.0,0.0,0.0,0.0,0.0,0.0
1494527318364550510,291,1494527318850075424,gyro_link,0.0,0.0,0.0,1.0,1.79769313486e+308,0.0,0.0,0.0,1.79769313486e+308,0.0,0.0,0.0,0.05,0.0,0.0,0.0,1.79769313486e+308,0.0,0.0,0.0,1.79769313486e+308,0.0,0.0,0.0,0.05,0.0,0.0,0.0,0.0,0.0,0.0,0.0,0.0,0.0,0.0,0.0,0.0
1494527318387614931,292,1494527318870080241,gyro_link,0.0,0.0,0.0,1.0,1.79769313486e+308,0.0,0.0,0.0,1.79769313486e+308,0.0,0.0,0.0,0.05,0.0,0.0,0.0,1.79769313486e+308,0.0,0.0,0.0,1.79769313486e+308,0.0,0.0,0.0,0.05,0.0,0.0,0.0,0.0,0.0,0.0,0.0,0.0,0.0,0.0,0.0,0.0
1494527318407012402,293,1494527318890913182,gyro_link,0.0,0.0,0.0,1.0,1.79769313486e+308,0.0,0.0,0.0,1.79769313486e+308,0.0,0.0,0.0,0.05,0.0,0.0,0.0,1.79769313486e+308,0.0,0.0,0.0,1.79769313486e+308,0.0,0.0,0.0,0.05,0.0,0.0,0.0,0.0,0.0,0.0,0.0,0.0,0.0,0.0,0.0,0.0
1494527318428007811,294,1494527318911168957,gyro_link,0.0,0.0,0.0,1.0,1.79769313486e+308,0.0,0.0,0.0,1.79769313486e+308,0.0,0.0,0.0,0.05,0.0,0.0,0.0,1.79769313486e+308,0.0,0.0,0.0,1.79769313486e+308,0.0,0.0,0.0,0.05,0.0,0.0,0.0,0.0,0.0,0.0,0.0,0.0,0.0,0.0,0.0,0.0
1494527318447005915,295,1494527318932537979,gyro_link,0.0,0.0,0.0,1.0,1.79769313486e+308,0.0,0.0,0.0,1.79769313486e+308,0.0,0.0,0.0,0.05,0.0,0.0,0.0,1.79769313486e+308,0.0,0.0,0.0,1.79769313486e+308,0.0,0.0,0.0,0.05,0.0,0.0,0.0,0.0,0.0,0.0,0.0,0.0,0.0,0.0,0.0,0.0
1494527318465492881,296,1494527318950957801,gyro_link,0.0,0.0,0.0,1.0,1.79769313486e+308,0.0,0.0,0.0,1.79769313486e+308,0.0,0.0,0.0,0.05,0.0,0.0,0.0,1.79769313486e+308,0.0,0.0,0.0,1.79769313486e+308,0.0,0.0,0.0,0.05,0.0,0.0,0.0,0.0,0.0,0.0,0.0,0.0,0.0,0.0,0.0,0.0
1494527318485983361,297,1494527318971004577,gyro_link,0.0,0.0,0.0,1.0,1.79769313486e+308,0.0,0.0,0.0,1.79769313486e+308,0.0,0.0,0.0,0.05,0.0,0.0,0.0,1.79769313486e+308,0.0,0.0,0.0,1.79769313486e+308,0.0,0.0,0.0,0.05,0.0,0.0,0.0,0.0,0.0,0.0,0.0,0.0,0.0,0.0,0.0,0.0
1494527318504535997,298,1494527318990061897,gyro_link,0.0,0.0,0.0,1.0,1.79769313486e+308,0.0,0.0,0.0,1.79769313486e+308,0.0,0.0,0.0,0.05,0.0,0.0,0.0,1.79769313486e+308,0.0,0.0,0.0,1.79769313486e+308,0.0,0.0,0.0,0.05,0.0,0.0,0.0,0.0,0.0,0.0,0.0,0.0,0.0,0.0,0.0,0.0
1494527318523906356,299,1494527319009987590,gyro_link,0.0,0.0,0.0,1.0,1.79769313486e+308,0.0,0.0,0.0,1.79769313486e+308,0.0,0.0,0.0,0.05,0.0,0.0,0.0,1.79769313486e+308,0.0,0.0,0.0,1.79769313486e+308,0.0,0.0,0.0,0.05,0.0,0.0,0.0,0.0,0.0,0.0,0.0,0.0,0.0,0.0,0.0,0.0
1494527318550967498,300,1494527319033470272,gyro_link,0.0,0.0,0.0,1.0,1.79769313486e+308,0.0,0.0,0.0,1.79769313486e+308,0.0,0.0,0.0,0.05,0.0,0.0,0.0,1.79769313486e+308,0.0,0.0,0.0,1.79769313486e+308,0.0,0.0,0.0,0.05,0.0,0.0,0.0,0.0,0.0,0.0,0.0,0.0,0.0,0.0,0.0,0.0
1494527318567288547,301,1494527319052526258,gyro_link,0.0,0.0,0.0,1.0,1.79769313486e+308,0.0,0.0,0.0,1.79769313486e+308,0.0,0.0,0.0,0.05,0.0,0.0,0.0,1.79769313486e+308,0.0,0.0,0.0,1.79769313486e+308,0.0,0.0,0.0,0.05,0.0,0.0,0.0,0.0,0.0,0.0,0.0,0.0,0.0,0.0,0.0,0.0
1494527318585764544,302,1494527319071084163,gyro_link,0.0,0.0,0.0,1.0,1.79769313486e+308,0.0,0.0,0.0,1.79769313486e+308,0.0,0.0,0.0,0.05,0.0,0.0,0.0,1.79769313486e+308,0.0,0.0,0.0,1.79769313486e+308,0.0,0.0,0.0,0.05,0.0,0.0,0.0,0.0,0.0,0.0,0.0,0.0,0.0,0.0,0.0,0.0
1494527318605026156,303,1494527319090865272,gyro_link,0.0,0.0,0.0,1.0,1.79769313486e+308,0.0,0.0,0.0,1.79769313486e+308,0.0,0.0,0.0,0.05,0.0,0.0,0.0,1.79769313486e+308,0.0,0.0,0.0,1.79769313486e+308,0.0,0.0,0.0,0.05,0.0,0.0,0.0,0.0,0.0,0.0,0.0,0.0,0.0,0.0,0.0,0.0
1494527318627483755,304,1494527319111184713,gyro_link,0.0,0.0,0.0,1.0,1.79769313486e+308,0.0,0.0,0.0,1.79769313486e+308,0.0,0.0,0.0,0.05,0.0,0.0,0.0,1.79769313486e+308,0.0,0.0,0.0,1.79769313486e+308,0.0,0.0,0.0,0.05,0.0,0.0,0.0,0.0,0.0,0.0,0.0,0.0,0.0,0.0,0.0,0.0
1494527318648315809,305,1494527319131386738,gyro_link,0.0,0.0,0.0,1.0,1.79769313486e+308,0.0,0.0,0.0,1.79769313486e+308,0.0,0.0,0.0,0.05,0.0,0.0,0.0,1.79769313486e+308,0.0,0.0,0.0,1.79769313486e+308,0.0,0.0,0.0,0.05,0.0,0.0,0.0,0.0,0.0,0.0,0.0,0.0,0.0,0.0,0.0,0.0
1494527318668994961,306,1494527319151725679,gyro_link,0.0,0.0,0.0,1.0,1.79769313486e+308,0.0,0.0,0.0,1.79769313486e+308,0.0,0.0,0.0,0.05,0.0,0.0,0.0,1.79769313486e+308,0.0,0.0,0.0,1.79769313486e+308,0.0,0.0,0.0,0.05,0.0,0.0,0.0,0.0,0.0,0.0,0.0,0.0,0.0,0.0,0.0,0.0
1494527318702613786,307,1494527319174739320,gyro_link,0.0,0.0,0.0,1.0,1.79769313486e+308,0.0,0.0,0.0,1.79769313486e+308,0.0,0.0,0.0,0.05,0.0,0.0,0.0,1.79769313486e+308,0.0,0.0,0.0,1.79769313486e+308,0.0,0.0,0.0,0.05,0.0,0.0,0.0,0.0,0.0,0.0,0.0,0.0,0.0,0.0,0.0,0.0
1494527318708389492,308,1494527319193930265,gyro_link,0.0,0.0,0.0,1.0,1.79769313486e+308,0.0,0.0,0.0,1.79769313486e+308,0.0,0.0,0.0,0.05,0.0,0.0,0.0,1.79769313486e+308,0.0,0.0,0.0,1.79769313486e+308,0.0,0.0,0.0,0.05,0.0,0.0,0.0,0.0,0.0,0.0,0.0,0.0,0.0,0.0,0.0,0.0
1494527318726565507,309,1494527319211218881,gyro_link,0.0,0.0,0.0,1.0,1.79769313486e+308,0.0,0.0,0.0,1.79769313486e+308,0.0,0.0,0.0,0.05,0.0,0.0,0.0,1.79769313486e+308,0.0,0.0,0.0,1.79769313486e+308,0.0,0.0,0.0,0.05,0.0,0.0,0.0,0.0,0.0,0.0,0.0,0.0,0.0,0.0,0.0,0.0
1494527318750148186,310,1494527319231441989,gyro_link,0.0,0.0,0.0,1.0,1.79769313486e+308,0.0,0.0,0.0,1.79769313486e+308,0.0,0.0,0.0,0.05,0.0,0.0,0.0,1.79769313486e+308,0.0,0.0,0.0,1.79769313486e+308,0.0,0.0,0.0,0.05,0.0,0.0,0.0,0.0,0.0,0.0,0.0,0.0,0.0,0.0,0.0,0.0
1494527318767578177,311,1494527319251500098,gyro_link,0.0,0.0,0.0,1.0,1.79769313486e+308,0.0,0.0,0.0,1.79769313486e+308,0.0,0.0,0.0,0.05,0.0,0.0,0.0,1.79769313486e+308,0.0,0.0,0.0,1.79769313486e+308,0.0,0.0,0.0,0.05,0.0,0.0,0.0,0.0,0.0,0.0,0.0,0.0,0.0,0.0,0.0,0.0
1494527318789019506,312,1494527319272475662,gyro_link,0.0,0.0,0.0,1.0,1.79769313486e+308,0.0,0.0,0.0,1.79769313486e+308,0.0,0.0,0.0,0.05,0.0,0.0,0.0,1.79769313486e+308,0.0,0.0,0.0,1.79769313486e+308,0.0,0.0,0.0,0.05,0.0,0.0,0.0,0.0,0.0,0.0,0.0,0.0,0.0,0.0,0.0,0.0
1494527318806839218,313,1494527319292050105,gyro_link,0.0,0.0,0.0,1.0,1.79769313486e+308,0.0,0.0,0.0,1.79769313486e+308,0.0,0.0,0.0,0.05,0.0,0.0,0.0,1.79769313486e+308,0.0,0.0,0.0,1.79769313486e+308,0.0,0.0,0.0,0.05,0.0,0.0,0.0,0.0,0.0,0.0,0.0,0.0,0.0,0.0,0.0,0.0
1494527318826886559,314,1494527319311073842,gyro_link,0.0,0.0,0.0,1.0,1.79769313486e+308,0.0,0.0,0.0,1.79769313486e+308,0.0,0.0,0.0,0.05,0.0,0.0,0.0,1.79769313486e+308,0.0,0.0,0.0,1.79769313486e+308,0.0,0.0,0.0,0.05,0.0,0.0,0.0,0.0,0.0,0.0,0.0,0.0,0.0,0.0,0.0,0.0
1494527318847474678,315,1494527319330823159,gyro_link,0.0,0.0,0.0,1.0,1.79769313486e+308,0.0,0.0,0.0,1.79769313486e+308,0.0,0.0,0.0,0.05,0.0,0.0,0.0,1.79769313486e+308,0.0,0.0,0.0,1.79769313486e+308,0.0,0.0,0.0,0.05,0.0,0.0,0.0,0.0,0.0,0.0,0.0,0.0,0.0,0.0,0.0,0.0
1494527318865806614,316,1494527319350926018,gyro_link,0.0,0.0,0.0,1.0,1.79769313486e+308,0.0,0.0,0.0,1.79769313486e+308,0.0,0.0,0.0,0.05,0.0,0.0,0.0,1.79769313486e+308,0.0,0.0,0.0,1.79769313486e+308,0.0,0.0,0.0,0.05,0.0,0.0,0.0,0.0,0.0,0.0,0.0,0.0,0.0,0.0,0.0,0.0
1494527318885264057,317,1494527319370735960,gyro_link,0.0,0.0,0.0,1.0,1.79769313486e+308,0.0,0.0,0.0,1.79769313486e+308,0.0,0.0,0.0,0.05,0.0,0.0,0.0,1.79769313486e+308,0.0,0.0,0.0,1.79769313486e+308,0.0,0.0,0.0,0.05,0.0,0.0,0.0,0.0,0.0,0.0,0.0,0.0,0.0,0.0,0.0,0.0
1494527318906633801,318,1494527319391183317,gyro_link,0.0,0.0,0.0,1.0,1.79769313486e+308,0.0,0.0,0.0,1.79769313486e+308,0.0,0.0,0.0,0.05,0.0,0.0,0.0,1.79769313486e+308,0.0,0.0,0.0,1.79769313486e+308,0.0,0.0,0.0,0.05,0.0,0.0,0.0,0.0,0.0,0.0,0.0,0.0,0.0,0.0,0.0,0.0
1494527318940876897,319,1494527319412392298,gyro_link,0.0,0.0,0.0,1.0,1.79769313486e+308,0.0,0.0,0.0,1.79769313486e+308,0.0,0.0,0.0,0.05,0.0,0.0,0.0,1.79769313486e+308,0.0,0.0,0.0,1.79769313486e+308,0.0,0.0,0.0,0.05,0.0,0.0,0.0,0.0,0.0,0.0,0.0,0.0,0.0,0.0,0.0,0.0
1494527318956130703,320,1494527319431168535,gyro_link,0.0,0.0,0.0,1.0,1.79769313486e+308,0.0,0.0,0.0,1.79769313486e+308,0.0,0.0,0.0,0.05,0.0,0.0,0.0,1.79769313486e+308,0.0,0.0,0.0,1.79769313486e+308,0.0,0.0,0.0,0.05,0.0,0.0,0.0,0.0,0.0,0.0,0.0,0.0,0.0,0.0,0.0,0.0
1494527318967171985,321,1494527319451898225,gyro_link,0.0,0.0,0.0,1.0,1.79769313486e+308,0.0,0.0,0.0,1.79769313486e+308,0.0,0.0,0.0,0.05,0.0,0.0,0.0,1.79769313486e+308,0.0,0.0,0.0,1.79769313486e+308,0.0,0.0,0.0,0.05,0.0,0.0,0.0,0.0,0.0,0.0,0.0,0.0,0.0,0.0,0.0,0.0
1494527318985822281,322,1494527319470871836,gyro_link,0.0,0.0,0.0,1.0,1.79769313486e+308,0.0,0.0,0.0,1.79769313486e+308,0.0,0.0,0.0,0.05,0.0,0.0,0.0,1.79769313486e+308,0.0,0.0,0.0,1.79769313486e+308,0.0,0.0,0.0,0.05,0.0,0.0,0.0,0.0,0.0,0.0,0.0,0.0,0.0,0.0,0.0,0.0
1494527319007291006,323,1494527319491803401,gyro_link,0.0,0.0,0.0,1.0,1.79769313486e+308,0.0,0.0,0.0,1.79769313486e+308,0.0,0.0,0.0,0.05,0.0,0.0,0.0,1.79769313486e+308,0.0,0.0,0.0,1.79769313486e+308,0.0,0.0,0.0,0.05,0.0,0.0,0.0,0.0,0.0,0.0,0.0,0.0,0.0,0.0,0.0,0.0
1494527319031576607,324,1494527319513116130,gyro_link,0.0,0.0,0.0,1.0,1.79769313486e+308,0.0,0.0,0.0,1.79769313486e+308,0.0,0.0,0.0,0.05,0.0,0.0,0.0,1.79769313486e+308,0.0,0.0,0.0,1.79769313486e+308,0.0,0.0,0.0,0.05,0.0,0.0,0.0,0.0,0.0,0.0,0.0,0.0,0.0,0.0,0.0,0.0
1494527319051506516,325,1494527319532429116,gyro_link,0.0,0.0,0.0,1.0,1.79769313486e+308,0.0,0.0,0.0,1.79769313486e+308,0.0,0.0,0.0,0.05,0.0,0.0,0.0,1.79769313486e+308,0.0,0.0,0.0,1.79769313486e+308,0.0,0.0,0.0,0.05,0.0,0.0,0.0,0.0,0.0,0.0,0.0,0.0,0.0,0.0,0.0,0.0
1494527319065860350,326,1494527319550956187,gyro_link,0.0,0.0,0.0,1.0,1.79769313486e+308,0.0,0.0,0.0,1.79769313486e+308,0.0,0.0,0.0,0.05,0.0,0.0,0.0,1.79769313486e+308,0.0,0.0,0.0,1.79769313486e+308,0.0,0.0,0.0,0.05,0.0,0.0,0.0,0.0,0.0,0.0,0.0,0.0,0.0,0.0,0.0,0.0
1494527319101333744,327,1494527319570594630,gyro_link,0.0,0.0,0.0,1.0,1.79769313486e+308,0.0,0.0,0.0,1.79769313486e+308,0.0,0.0,0.0,0.05,0.0,0.0,0.0,1.79769313486e+308,0.0,0.0,0.0,1.79769313486e+308,0.0,0.0,0.0,0.05,0.0,0.0,0.0,0.0,0.0,0.0,0.0,0.0,0.0,0.0,0.0,0.0
1494527319113135389,328,1494527319591164862,gyro_link,0.0,0.0,0.0,1.0,1.79769313486e+308,0.0,0.0,0.0,1.79769313486e+308,0.0,0.0,0.0,0.05,0.0,0.0,0.0,1.79769313486e+308,0.0,0.0,0.0,1.79769313486e+308,0.0,0.0,0.0,0.05,0.0,0.0,0.0,0.0,0.0,0.0,0.0,0.0,0.0,0.0,0.0,0.0
1494527319126311585,329,1494527319610893722,gyro_link,0.0,0.0,0.0,1.0,1.79769313486e+308,0.0,0.0,0.0,1.79769313486e+308,0.0,0.0,0.0,0.05,0.0,0.0,0.0,1.79769313486e+308,0.0,0.0,0.0,1.79769313486e+308,0.0,0.0,0.0,0.05,0.0,0.0,0.0,0.0,0.0,0.0,0.0,0.0,0.0,0.0,0.0,0.0
1494527319152856511,330,1494527319633002116,gyro_link,0.0,0.0,0.0,1.0,1.79769313486e+308,0.0,0.0,0.0,1.79769313486e+308,0.0,0.0,0.0,0.05,0.0,0.0,0.0,1.79769313486e+308,0.0,0.0,0.0,1.79769313486e+308,0.0,0.0,0.0,0.05,0.0,0.0,0.0,0.0,0.0,0.0,0.0,0.0,0.0,0.0,0.0,0.0
1494527319171561004,331,1494527319652315768,gyro_link,0.0,0.0,0.0,1.0,1.79769313486e+308,0.0,0.0,0.0,1.79769313486e+308,0.0,0.0,0.0,0.05,0.0,0.0,0.0,1.79769313486e+308,0.0,0.0,0.0,1.79769313486e+308,0.0,0.0,0.0,0.05,0.0,0.0,0.0,0.0,0.0,0.0,0.0,0.0,0.0,0.0,0.0,0.0
1494527319187423753,332,1494527319672046544,gyro_link,0.0,0.0,0.0,1.0,1.79769313486e+308,0.0,0.0,0.0,1.79769313486e+308,0.0,0.0,0.0,0.05,0.0,0.0,0.0,1.79769313486e+308,0.0,0.0,0.0,1.79769313486e+308,0.0,0.0,0.0,0.05,0.0,0.0,0.0,0.0,0.0,0.0,0.0,0.0,0.0,0.0,0.0,0.0
1494527319206626777,333,1494527319692063861,gyro_link,0.0,0.0,0.0,1.0,1.79769313486e+308,0.0,0.0,0.0,1.79769313486e+308,0.0,0.0,0.0,0.05,0.0,0.0,0.0,1.79769313486e+308,0.0,0.0,0.0,1.79769313486e+308,0.0,0.0,0.0,0.05,0.0,0.0,0.0,0.0,0.0,0.0,0.0,0.0,0.0,0.0,0.0,0.0
1494527319226089345,334,1494527319711812137,gyro_link,0.0,0.0,0.0,1.0,1.79769313486e+308,0.0,0.0,0.0,1.79769313486e+308,0.0,0.0,0.0,0.05,0.0,0.0,0.0,1.79769313486e+308,0.0,0.0,0.0,1.79769313486e+308,0.0,0.0,0.0,0.05,0.0,0.0,0.0,0.0,0.0,0.0,0.0,0.0,0.0,0.0,0.0,0.0
1494527319246511939,335,1494527319731786246,gyro_link,0.0,0.0,0.0,1.0,1.79769313486e+308,0.0,0.0,0.0,1.79769313486e+308,0.0,0.0,0.0,0.05,0.0,0.0,0.0,1.79769313486e+308,0.0,0.0,0.0,1.79769313486e+308,0.0,0.0,0.0,0.05,0.0,0.0,0.0,0.0,0.0,0.0,0.0,0.0,0.0,0.0,0.0,0.0
1494527319267033171,336,1494527319752343728,gyro_link,0.0,0.0,0.0,1.0,1.79769313486e+308,0.0,0.0,0.0,1.79769313486e+308,0.0,0.0,0.0,0.05,0.0,0.0,0.0,1.79769313486e+308,0.0,0.0,0.0,1.79769313486e+308,0.0,0.0,0.0,0.05,0.0,0.0,0.0,0.0,0.0,0.0,0.0,0.0,0.0,0.0,0.0,0.0
1494527319289541635,337,1494527319772912710,gyro_link,0.0,0.0,0.0,1.0,1.79769313486e+308,0.0,0.0,0.0,1.79769313486e+308,0.0,0.0,0.0,0.05,0.0,0.0,0.0,1.79769313486e+308,0.0,0.0,0.0,1.79769313486e+308,0.0,0.0,0.0,0.05,0.0,0.0,0.0,0.0,0.0,0.0,0.0,0.0,0.0,0.0,0.0,0.0
1494527319307000455,338,1494527319791691114,gyro_link,0.0,0.0,0.0,1.0,1.79769313486e+308,0.0,0.0,0.0,1.79769313486e+308,0.0,0.0,0.0,0.05,0.0,0.0,0.0,1.79769313486e+308,0.0,0.0,0.0,1.79769313486e+308,0.0,0.0,0.0,0.05,0.0,0.0,0.0,0.0,0.0,0.0,0.0,0.0,0.0,0.0,0.0,0.0
1494527319326824179,339,1494527319811808889,gyro_link,0.0,0.0,0.0,1.0,1.79769313486e+308,0.0,0.0,0.0,1.79769313486e+308,0.0,0.0,0.0,0.05,0.0,0.0,0.0,1.79769313486e+308,0.0,0.0,0.0,1.79769313486e+308,0.0,0.0,0.0,0.05,0.0,0.0,0.0,0.0,0.0,0.0,0.0,0.0,0.0,0.0,0.0,0.0
1494527319347548152,340,1494527319832958703,gyro_link,0.0,0.0,0.0,1.0,1.79769313486e+308,0.0,0.0,0.0,1.79769313486e+308,0.0,0.0,0.0,0.05,0.0,0.0,0.0,1.79769313486e+308,0.0,0.0,0.0,1.79769313486e+308,0.0,0.0,0.0,0.05,0.0,0.0,0.0,0.0,0.0,0.0,0.0,0.0,0.0,0.0,0.0,0.0
1494527319368496409,341,1494527319852419146,gyro_link,0.0,0.0,0.0,1.0,1.79769313486e+308,0.0,0.0,0.0,1.79769313486e+308,0.0,0.0,0.0,0.05,0.0,0.0,0.0,1.79769313486e+308,0.0,0.0,0.0,1.79769313486e+308,0.0,0.0,0.0,0.05,0.0,0.0,0.0,0.0,0.0,0.0,0.0,0.0,0.0,0.0,0.0,0.0
1494527319390434465,342,1494527319872534921,gyro_link,0.0,0.0,0.0,1.0,1.79769313486e+308,0.0,0.0,0.0,1.79769313486e+308,0.0,0.0,0.0,0.05,0.0,0.0,0.0,1.79769313486e+308,0.0,0.0,0.0,1.79769313486e+308,0.0,0.0,0.0,0.05,0.0,0.0,0.0,0.0,0.0,0.0,0.0,0.0,0.0,0.0,0.0,0.0
1494527319407417504,343,1494527319892518363,gyro_link,0.0,0.0,0.0,1.0,1.79769313486e+308,0.0,0.0,0.0,1.79769313486e+308,0.0,0.0,0.0,0.05,0.0,0.0,0.0,1.79769313486e+308,0.0,0.0,0.0,1.79769313486e+308,0.0,0.0,0.0,0.05,0.0,0.0,0.0,0.0,0.0,0.0,0.0,0.0,0.0,0.0,0.0,0.0
1494527319427773686,344,1494527319911645141,gyro_link,0.0,0.0,0.0,1.0,1.79769313486e+308,0.0,0.0,0.0,1.79769313486e+308,0.0,0.0,0.0,0.05,0.0,0.0,0.0,1.79769313486e+308,0.0,0.0,0.0,1.79769313486e+308,0.0,0.0,0.0,0.05,0.0,0.0,0.0,0.0,0.0,0.0,0.0,0.0,0.0,0.0,0.0,0.0
1494527319446246152,345,1494527319931699833,gyro_link,0.0,0.0,0.0,1.0,1.79769313486e+308,0.0,0.0,0.0,1.79769313486e+308,0.0,0.0,0.0,0.05,0.0,0.0,0.0,1.79769313486e+308,0.0,0.0,0.0,1.79769313486e+308,0.0,0.0,0.0,0.05,0.0,0.0,0.0,0.0,0.0,0.0,0.0,0.0,0.0,0.0,0.0,0.0
1494527319469247789,346,1494527319951666108,gyro_link,0.0,0.0,0.0,1.0,1.79769313486e+308,0.0,0.0,0.0,1.79769313486e+308,0.0,0.0,0.0,0.05,0.0,0.0,0.0,1.79769313486e+308,0.0,0.0,0.0,1.79769313486e+308,0.0,0.0,0.0,0.05,0.0,0.0,0.0,0.0,0.0,0.0,0.0,0.0,0.0,0.0,0.0,0.0
1494527319496522571,347,1494527319972320882,gyro_link,0.0,0.0,0.0,1.0,1.79769313486e+308,0.0,0.0,0.0,1.79769313486e+308,0.0,0.0,0.0,0.05,0.0,0.0,0.0,1.79769313486e+308,0.0,0.0,0.0,1.79769313486e+308,0.0,0.0,0.0,0.05,0.0,0.0,0.0,0.0,0.0,0.0,0.0,0.0,0.0,0.0,0.0,0.0
1494527319507466628,348,1494527319992947155,gyro_link,0.0,0.0,0.0,1.0,1.79769313486e+308,0.0,0.0,0.0,1.79769313486e+308,0.0,0.0,0.0,0.05,0.0,0.0,0.0,1.79769313486e+308,0.0,0.0,0.0,1.79769313486e+308,0.0,0.0,0.0,0.05,0.0,0.0,0.0,0.0,0.0,0.0,0.0,0.0,0.0,0.0,0.0,0.0
1494527319527861514,349,1494527320012791056,gyro_link,0.0,0.0,0.0,1.0,1.79769313486e+308,0.0,0.0,0.0,1.79769313486e+308,0.0,0.0,0.0,0.05,0.0,0.0,0.0,1.79769313486e+308,0.0,0.0,0.0,1.79769313486e+308,0.0,0.0,0.0,0.05,0.0,0.0,0.0,0.0,0.0,0.0,0.0,0.0,0.0,0.0,0.0,0.0
1494527319546205328,350,1494527320031935166,gyro_link,0.0,0.0,0.0,1.0,1.79769313486e+308,0.0,0.0,0.0,1.79769313486e+308,0.0,0.0,0.0,0.05,0.0,0.0,0.0,1.79769313486e+308,0.0,0.0,0.0,1.79769313486e+308,0.0,0.0,0.0,0.05,0.0,0.0,0.0,0.0,0.0,0.0,0.0,0.0,0.0,0.0,0.0,0.0
1494527319567231236,351,1494527320051659941,gyro_link,0.0,0.0,0.0,1.0,1.79769313486e+308,0.0,0.0,0.0,1.79769313486e+308,0.0,0.0,0.0,0.05,0.0,0.0,0.0,1.79769313486e+308,0.0,0.0,0.0,1.79769313486e+308,0.0,0.0,0.0,0.05,0.0,0.0,0.0,0.0,0.0,0.0,0.0,0.0,0.0,0.0,0.0,0.0
1494527319615327754,352,1494527320071619758,gyro_link,0.0,0.0,0.0,1.0,1.79769313486e+308,0.0,0.0,0.0,1.79769313486e+308,0.0,0.0,0.0,0.05,0.0,0.0,0.0,1.79769313486e+308,0.0,0.0,0.0,1.79769313486e+308,0.0,0.0,0.0,0.05,0.0,0.0,0.0,0.0,0.0,0.0,0.0,0.0,0.0,0.0,0.0,0.0
1494527319624728252,353,1494527320092938737,gyro_link,0.0,0.0,0.0,1.0,1.79769313486e+308,0.0,0.0,0.0,1.79769313486e+308,0.0,0.0,0.0,0.05,0.0,0.0,0.0,1.79769313486e+308,0.0,0.0,0.0,1.79769313486e+308,0.0,0.0,0.0,0.05,0.0,0.0,0.0,0.0,0.0,0.0,0.0,0.0,0.0,0.0,0.0,0.0
1494527319631074451,354,1494527320115720420,gyro_link,0.0,0.0,0.0,1.0,1.79769313486e+308,0.0,0.0,0.0,1.79769313486e+308,0.0,0.0,0.0,0.05,0.0,0.0,0.0,1.79769313486e+308,0.0,0.0,0.0,1.79769313486e+308,0.0,0.0,0.0,0.05,0.0,0.0,0.0,0.0,0.0,0.0,0.0,0.0,0.0,0.0,0.0,0.0
1494527319648654684,355,1494527320132439288,gyro_link,0.0,0.0,0.0,1.0,1.79769313486e+308,0.0,0.0,0.0,1.79769313486e+308,0.0,0.0,0.0,0.05,0.0,0.0,0.0,1.79769313486e+308,0.0,0.0,0.0,1.79769313486e+308,0.0,0.0,0.0,0.05,0.0,0.0,0.0,0.0,0.0,0.0,0.0,0.0,0.0,0.0,0.0,0.0
1494527319668157191,356,1494527320152587562,gyro_link,0.0,0.0,0.0,1.0,1.79769313486e+308,0.0,0.0,0.0,1.79769313486e+308,0.0,0.0,0.0,0.05,0.0,0.0,0.0,1.79769313486e+308,0.0,0.0,0.0,1.79769313486e+308,0.0,0.0,0.0,0.05,0.0,0.0,0.0,0.0,0.0,0.0,0.0,0.0,0.0,0.0,0.0,0.0
1494527319689841028,357,1494527320172273712,gyro_link,0.0,0.0,0.0,1.0,1.79769313486e+308,0.0,0.0,0.0,1.79769313486e+308,0.0,0.0,0.0,0.05,0.0,0.0,0.0,1.79769313486e+308,0.0,0.0,0.0,1.79769313486e+308,0.0,0.0,0.0,0.05,0.0,0.0,0.0,0.0,0.0,0.0,0.0,0.0,0.0,0.0,0.0,0.0
1494527319706292111,358,1494527320192256112,gyro_link,0.0,0.0,0.0,1.0,1.79769313486e+308,0.0,0.0,0.0,1.79769313486e+308,0.0,0.0,0.0,0.05,0.0,0.0,0.0,1.79769313486e+308,0.0,0.0,0.0,1.79769313486e+308,0.0,0.0,0.0,0.05,0.0,0.0,0.0,0.0,0.0,0.0,0.0,0.0,0.0,0.0,0.0,0.0
1494527319728166603,359,1494527320212660427,gyro_link,0.0,0.0,0.0,1.0,1.79769313486e+308,0.0,0.0,0.0,1.79769313486e+308,0.0,0.0,0.0,0.05,0.0,0.0,0.0,1.79769313486e+308,0.0,0.0,0.0,1.79769313486e+308,0.0,0.0,0.0,0.05,0.0,0.0,0.0,0.0,0.0,0.0,0.0,0.0,0.0,0.0,0.0,0.0
1494527319747831408,360,1494527320232603369,gyro_link,0.0,0.0,0.0,1.0,1.79769313486e+308,0.0,0.0,0.0,1.79769313486e+308,0.0,0.0,0.0,0.05,0.0,0.0,0.0,1.79769313486e+308,0.0,0.0,0.0,1.79769313486e+308,0.0,0.0,0.0,0.05,0.0,0.0,0.0,0.0,0.0,0.0,0.0,0.0,0.0,0.0,0.0,0.0
1494527319770769690,361,1494527320252647935,gyro_link,0.0,0.0,0.0,1.0,1.79769313486e+308,0.0,0.0,0.0,1.79769313486e+308,0.0,0.0,0.0,0.05,0.0,0.0,0.0,1.79769313486e+308,0.0,0.0,0.0,1.79769313486e+308,0.0,0.0,0.0,0.05,0.0,0.0,0.0,0.0,0.0,0.0,0.0,0.0,0.0,0.0,0.0,0.0
1494527319787109018,362,1494527320272883000,gyro_link,0.0,0.0,0.0,1.0,1.79769313486e+308,0.0,0.0,0.0,1.79769313486e+308,0.0,0.0,0.0,0.05,0.0,0.0,0.0,1.79769313486e+308,0.0,0.0,0.0,1.79769313486e+308,0.0,0.0,0.0,0.05,0.0,0.0,0.0,0.0,0.0,0.0,0.0,0.0,0.0,0.0,0.0,0.0
1494527319809951280,363,1494527320293518565,gyro_link,0.0,0.0,0.0,1.0,1.79769313486e+308,0.0,0.0,0.0,1.79769313486e+308,0.0,0.0,0.0,0.05,0.0,0.0,0.0,1.79769313486e+308,0.0,0.0,0.0,1.79769313486e+308,0.0,0.0,0.0,0.05,0.0,0.0,0.0,0.0,0.0,0.0,0.0,0.0,0.0,0.0,0.0,0.0
1494527319829449611,364,1494527320312943133,gyro_link,0.0,0.0,0.0,1.0,1.79769313486e+308,0.0,0.0,0.0,1.79769313486e+308,0.0,0.0,0.0,0.05,0.0,0.0,0.0,1.79769313486e+308,0.0,0.0,0.0,1.79769313486e+308,0.0,0.0,0.0,0.05,0.0,0.0,0.0,0.0,0.0,0.0,0.0,0.0,0.0,0.0,0.0,0.0
1494527319847790956,365,1494527320332976491,gyro_link,0.0,0.0,0.0,1.0,1.79769313486e+308,0.0,0.0,0.0,1.79769313486e+308,0.0,0.0,0.0,0.05,0.0,0.0,0.0,1.79769313486e+308,0.0,0.0,0.0,1.79769313486e+308,0.0,0.0,0.0,0.05,0.0,0.0,0.0,0.0,0.0,0.0,0.0,0.0,0.0,0.0,0.0,0.0
1494527319871177617,366,1494527320353190681,gyro_link,0.0,0.0,0.0,1.0,1.79769313486e+308,0.0,0.0,0.0,1.79769313486e+308,0.0,0.0,0.0,0.05,0.0,0.0,0.0,1.79769313486e+308,0.0,0.0,0.0,1.79769313486e+308,0.0,0.0,0.0,0.05,0.0,0.0,0.0,0.0,0.0,0.0,0.0,0.0,0.0,0.0,0.0,0.0
1494527319886932138,367,1494527320373116790,gyro_link,0.0,0.0,0.0,1.0,1.79769313486e+308,0.0,0.0,0.0,1.79769313486e+308,0.0,0.0,0.0,0.05,0.0,0.0,0.0,1.79769313486e+308,0.0,0.0,0.0,1.79769313486e+308,0.0,0.0,0.0,0.05,0.0,0.0,0.0,0.0,0.0,0.0,0.0,0.0,0.0,0.0,0.0,0.0
1494527319909198272,368,1494527320392842232,gyro_link,0.0,0.0,0.0,1.0,1.79769313486e+308,0.0,0.0,0.0,1.79769313486e+308,0.0,0.0,0.0,0.05,0.0,0.0,0.0,1.79769313486e+308,0.0,0.0,0.0,1.79769313486e+308,0.0,0.0,0.0,0.05,0.0,0.0,0.0,0.0,0.0,0.0,0.0,0.0,0.0,0.0,0.0,0.0
1494527319927930520,369,1494527320412660424,gyro_link,0.0,0.0,0.0,1.0,1.79769313486e+308,0.0,0.0,0.0,1.79769313486e+308,0.0,0.0,0.0,0.05,0.0,0.0,0.0,1.79769313486e+308,0.0,0.0,0.0,1.79769313486e+308,0.0,0.0,0.0,0.05,0.0,0.0,0.0,0.0,0.0,0.0,0.0,0.0,0.0,0.0,0.0,0.0
1494527319953407914,370,1494527320435441857,gyro_link,0.0,0.0,0.0,1.0,1.79769313486e+308,0.0,0.0,0.0,1.79769313486e+308,0.0,0.0,0.0,0.05,0.0,0.0,0.0,1.79769313486e+308,0.0,0.0,0.0,1.79769313486e+308,0.0,0.0,0.0,0.05,0.0,0.0,0.0,0.0,0.0,0.0,0.0,0.0,0.0,0.0,0.0,0.0
1494527319971790069,371,1494527320452593973,gyro_link,0.0,0.0,0.0,1.0,1.79769313486e+308,0.0,0.0,0.0,1.79769313486e+308,0.0,0.0,0.0,0.05,0.0,0.0,0.0,1.79769313486e+308,0.0,0.0,0.0,1.79769313486e+308,0.0,0.0,0.0,0.05,0.0,0.0,0.0,0.0,0.0,0.0,0.0,0.0,0.0,0.0,0.0,0.0
1494527319987257837,372,1494527320472708539,gyro_link,0.0,0.0,0.0,1.0,1.79769313486e+308,0.0,0.0,0.0,1.79769313486e+308,0.0,0.0,0.0,0.05,0.0,0.0,0.0,1.79769313486e+308,0.0,0.0,0.0,1.79769313486e+308,0.0,0.0,0.0,0.05,0.0,0.0,0.0,0.0,0.0,0.0,0.0,0.0,0.0,0.0,0.0,0.0
1494527320007962586,373,1494527320492473814,gyro_link,0.0,0.0,0.0,1.0,1.79769313486e+308,0.0,0.0,0.0,1.79769313486e+308,0.0,0.0,0.0,0.05,0.0,0.0,0.0,1.79769313486e+308,0.0,0.0,0.0,1.79769313486e+308,0.0,0.0,0.0,0.05,0.0,0.0,0.0,0.0,0.0,0.0,0.0,0.0,0.0,0.0,0.0,0.0
1494527320028209722,374,1494527320512495339,gyro_link,0.0,0.0,0.0,1.0,1.79769313486e+308,0.0,0.0,0.0,1.79769313486e+308,0.0,0.0,0.0,0.05,0.0,0.0,0.0,1.79769313486e+308,0.0,0.0,0.0,1.79769313486e+308,0.0,0.0,0.0,0.05,0.0,0.0,0.0,0.0,0.0,0.0,0.0,0.0,0.0,0.0,0.0,0.0
1494527320047392656,375,1494527320532654905,gyro_link,0.0,0.0,0.0,1.0,1.79769313486e+308,0.0,0.0,0.0,1.79769313486e+308,0.0,0.0,0.0,0.05,0.0,0.0,0.0,1.79769313486e+308,0.0,0.0,0.0,1.79769313486e+308,0.0,0.0,0.0,0.05,0.0,0.0,0.0,0.0,0.0,0.0,0.0,0.0,0.0,0.0,0.0,0.0
1494527320145931989,376,1494527320553564885,gyro_link,0.0,0.0,0.0,1.0,1.79769313486e+308,0.0,0.0,0.0,1.79769313486e+308,0.0,0.0,0.0,0.05,0.0,0.0,0.0,1.79769313486e+308,0.0,0.0,0.0,1.79769313486e+308,0.0,0.0,0.0,0.05,0.0,0.0,0.0,0.0,0.0,0.0,0.0,0.0,0.0,0.0,0.0,0.0
1494527320145956578,377,1494527320573836951,gyro_link,0.0,0.0,0.0,1.0,1.79769313486e+308,0.0,0.0,0.0,1.79769313486e+308,0.0,0.0,0.0,0.05,0.0,0.0,0.0,1.79769313486e+308,0.0,0.0,0.0,1.79769313486e+308,0.0,0.0,0.0,0.05,0.0,0.0,0.0,0.0,0.0,0.0,0.0,0.0,0.0,0.0,0.0,0.0
1494527320145972894,378,1494527320597293923,gyro_link,0.0,0.0,0.0,1.0,1.79769313486e+308,0.0,0.0,0.0,1.79769313486e+308,0.0,0.0,0.0,0.05,0.0,0.0,0.0,1.79769313486e+308,0.0,0.0,0.0,1.79769313486e+308,0.0,0.0,0.0,0.05,0.0,0.0,0.0,0.0,0.0,0.0,0.0,0.0,0.0,0.0,0.0,0.0
1494527320145984435,379,1494527320612686753,gyro_link,0.0,0.0,0.0,1.0,1.79769313486e+308,0.0,0.0,0.0,1.79769313486e+308,0.0,0.0,0.0,0.05,0.0,0.0,0.0,1.79769313486e+308,0.0,0.0,0.0,1.79769313486e+308,0.0,0.0,0.0,0.05,0.0,0.0,0.0,0.0,0.0,0.0,0.0,0.0,0.0,0.0,0.0,0.0
1494527320162435630,380,1494527320632493112,gyro_link,0.0,0.0,0.0,1.0,1.79769313486e+308,0.0,0.0,0.0,1.79769313486e+308,0.0,0.0,0.0,0.05,0.0,0.0,0.0,1.79769313486e+308,0.0,0.0,0.0,1.79769313486e+308,0.0,0.0,0.0,0.05,0.0,0.0,0.0,0.0,0.0,0.0,0.0,0.0,0.0,0.0,0.0,0.0
1494527320166690767,381,1494527320652738261,gyro_link,0.0,0.0,0.0,1.0,1.79769313486e+308,0.0,0.0,0.0,1.79769313486e+308,0.0,0.0,0.0,0.05,0.0,0.0,0.0,1.79769313486e+308,0.0,0.0,0.0,1.79769313486e+308,0.0,0.0,0.0,0.05,0.0,0.0,0.0,0.0,0.0,0.0,0.0,0.0,0.0,0.0,0.0,0.0
1494527320187372937,382,1494527320672682244,gyro_link,0.0,0.0,0.0,1.0,1.79769313486e+308,0.0,0.0,0.0,1.79769313486e+308,0.0,0.0,0.0,0.05,0.0,0.0,0.0,1.79769313486e+308,0.0,0.0,0.0,1.79769313486e+308,0.0,0.0,0.0,0.05,0.0,0.0,0.0,0.0,0.0,0.0,0.0,0.0,0.0,0.0,0.0,0.0
1494527320206681052,383,1494527320692460519,gyro_link,0.0,0.0,0.0,1.0,1.79769313486e+308,0.0,0.0,0.0,1.79769313486e+308,0.0,0.0,0.0,0.05,0.0,0.0,0.0,1.79769313486e+308,0.0,0.0,0.0,1.79769313486e+308,0.0,0.0,0.0,0.05,0.0,0.0,0.0,0.0,0.0,0.0,0.0,0.0,0.0,0.0,0.0,0.0
1494527320233006030,384,1494527320713855373,gyro_link,0.0,0.0,0.0,1.0,1.79769313486e+308,0.0,0.0,0.0,1.79769313486e+308,0.0,0.0,0.0,0.05,0.0,0.0,0.0,1.79769313486e+308,0.0,0.0,0.0,1.79769313486e+308,0.0,0.0,0.0,0.05,0.0,0.0,0.0,0.0,0.0,0.0,0.0,0.0,0.0,0.0,0.0,0.0
1494527320250151762,385,1494527320733458107,gyro_link,0.0,0.0,0.0,1.0,1.79769313486e+308,0.0,0.0,0.0,1.79769313486e+308,0.0,0.0,0.0,0.05,0.0,0.0,0.0,1.79769313486e+308,0.0,0.0,0.0,1.79769313486e+308,0.0,0.0,0.0,0.05,0.0,0.0,0.0,0.0,0.0,0.0,0.0,0.0,0.0,0.0,0.0,0.0
1494527320266012117,386,1494527320752276927,gyro_link,0.0,0.0,0.0,1.0,1.79769313486e+308,0.0,0.0,0.0,1.79769313486e+308,0.0,0.0,0.0,0.05,0.0,0.0,0.0,1.79769313486e+308,0.0,0.0,0.0,1.79769313486e+308,0.0,0.0,0.0,0.05,0.0,0.0,0.0,0.0,0.0,0.0,0.0,0.0,0.0,0.0,0.0,0.0
1494527320289423274,387,1494527320773634322,gyro_link,0.0,0.0,0.0,1.0,1.79769313486e+308,0.0,0.0,0.0,1.79769313486e+308,0.0,0.0,0.0,0.05,0.0,0.0,0.0,1.79769313486e+308,0.0,0.0,0.0,1.79769313486e+308,0.0,0.0,0.0,0.05,0.0,0.0,0.0,0.0,0.0,0.0,0.0,0.0,0.0,0.0,0.0,0.0
1494527320307106627,388,1494527320792512517,gyro_link,0.0,0.0,0.0,1.0,1.79769313486e+308,0.0,0.0,0.0,1.79769313486e+308,0.0,0.0,0.0,0.05,0.0,0.0,0.0,1.79769313486e+308,0.0,0.0,0.0,1.79769313486e+308,0.0,0.0,0.0,0.05,0.0,0.0,0.0,0.0,0.0,0.0,0.0,0.0,0.0,0.0,0.0,0.0
1494527320327770135,389,1494527320813613622,gyro_link,0.0,0.0,0.0,1.0,1.79769313486e+308,0.0,0.0,0.0,1.79769313486e+308,0.0,0.0,0.0,0.05,0.0,0.0,0.0,1.79769313486e+308,0.0,0.0,0.0,1.79769313486e+308,0.0,0.0,0.0,0.05,0.0,0.0,0.0,0.0,0.0,0.0,0.0,0.0,0.0,0.0,0.0,0.0
1494527320347849646,390,1494527320833569355,gyro_link,0.0,0.0,0.0,1.0,1.79769313486e+308,0.0,0.0,0.0,1.79769313486e+308,0.0,0.0,0.0,0.05,0.0,0.0,0.0,1.79769313486e+308,0.0,0.0,0.0,1.79769313486e+308,0.0,0.0,0.0,0.05,0.0,0.0,0.0,0.0,0.0,0.0,0.0,0.0,0.0,0.0,0.0,0.0
1494527320368591980,391,1494527320855062500,gyro_link,0.0,0.0,0.0,1.0,1.79769313486e+308,0.0,0.0,0.0,1.79769313486e+308,0.0,0.0,0.0,0.05,0.0,0.0,0.0,1.79769313486e+308,0.0,0.0,0.0,1.79769313486e+308,0.0,0.0,0.0,0.05,0.0,0.0,0.0,0.0,0.0,0.0,0.0,0.0,0.0,0.0,0.0,0.0
1494527320386808480,392,1494527320872382491,gyro_link,0.0,0.0,0.0,1.0,1.79769313486e+308,0.0,0.0,0.0,1.79769313486e+308,0.0,0.0,0.0,0.05,0.0,0.0,0.0,1.79769313486e+308,0.0,0.0,0.0,1.79769313486e+308,0.0,0.0,0.0,0.05,0.0,0.0,0.0,0.0,0.0,0.0,0.0,0.0,0.0,0.0,0.0,0.0
1494527320407018013,393,1494527320892462890,gyro_link,0.0,0.0,0.0,1.0,1.79769313486e+308,0.0,0.0,0.0,1.79769313486e+308,0.0,0.0,0.0,0.05,0.0,0.0,0.0,1.79769313486e+308,0.0,0.0,0.0,1.79769313486e+308,0.0,0.0,0.0,0.05,0.0,0.0,0.0,0.0,0.0,0.0,0.0,0.0,0.0,0.0,0.0,0.0
1494527320427321999,394,1494527320912372790,gyro_link,0.0,0.0,0.0,1.0,1.79769313486e+308,0.0,0.0,0.0,1.79769313486e+308,0.0,0.0,0.0,0.05,0.0,0.0,0.0,1.79769313486e+308,0.0,0.0,0.0,1.79769313486e+308,0.0,0.0,0.0,0.05,0.0,0.0,0.0,0.0,0.0,0.0,0.0,0.0,0.0,0.0,0.0,0.0
1494527320447301477,395,1494527320932451815,gyro_link,0.0,0.0,0.0,1.0,1.79769313486e+308,0.0,0.0,0.0,1.79769313486e+308,0.0,0.0,0.0,0.05,0.0,0.0,0.0,1.79769313486e+308,0.0,0.0,0.0,1.79769313486e+308,0.0,0.0,0.0,0.05,0.0,0.0,0.0,0.0,0.0,0.0,0.0,0.0,0.0,0.0,0.0,0.0
1494527320471610578,396,1494527320954189834,gyro_link,0.0,0.0,0.0,1.0,1.79769313486e+308,0.0,0.0,0.0,1.79769313486e+308,0.0,0.0,0.0,0.05,0.0,0.0,0.0,1.79769313486e+308,0.0,0.0,0.0,1.79769313486e+308,0.0,0.0,0.0,0.05,0.0,0.0,0.0,0.0,0.0,0.0,0.0,0.0,0.0,0.0,0.0,0.0
1494527320493813883,397,1494527320974252650,gyro_link,0.0,0.0,0.0,1.0,1.79769313486e+308,0.0,0.0,0.0,1.79769313486e+308,0.0,0.0,0.0,0.05,0.0,0.0,0.0,1.79769313486e+308,0.0,0.0,0.0,1.79769313486e+308,0.0,0.0,0.0,0.05,0.0,0.0,0.0,0.0,0.0,0.0,0.0,0.0,0.0,0.0,0.0,0.0
1494527320509841506,398,1494527320993405052,gyro_link,0.0,0.0,0.0,1.0,1.79769313486e+308,0.0,0.0,0.0,1.79769313486e+308,0.0,0.0,0.0,0.05,0.0,0.0,0.0,1.79769313486e+308,0.0,0.0,0.0,1.79769313486e+308,0.0,0.0,0.0,0.05,0.0,0.0,0.0,0.0,0.0,0.0,0.0,0.0,0.0,0.0,0.0,0.0
1494527320528712113,399,1494527321013596951,gyro_link,0.0,0.0,0.0,1.0,1.79769313486e+308,0.0,0.0,0.0,1.79769313486e+308,0.0,0.0,0.0,0.05,0.0,0.0,0.0,1.79769313486e+308,0.0,0.0,0.0,1.79769313486e+308,0.0,0.0,0.0,0.05,0.0,0.0,0.0,0.0,0.0,0.0,0.0,0.0,0.0,0.0,0.0,0.0
1494527320549078421,400,1494527321033316726,gyro_link,0.0,0.0,0.0,1.0,1.79769313486e+308,0.0,0.0,0.0,1.79769313486e+308,0.0,0.0,0.0,0.05,0.0,0.0,0.0,1.79769313486e+308,0.0,0.0,0.0,1.79769313486e+308,0.0,0.0,0.0,0.05,0.0,0.0,0.0,0.0,0.0,0.0,0.0,0.0,0.0,0.0,0.0,0.0
1494527320567764713,401,1494527321053245375,gyro_link,0.0,0.0,0.0,1.0,1.79769313486e+308,0.0,0.0,0.0,1.79769313486e+308,0.0,0.0,0.0,0.05,0.0,0.0,0.0,1.79769313486e+308,0.0,0.0,0.0,1.79769313486e+308,0.0,0.0,0.0,0.05,0.0,0.0,0.0,0.0,0.0,0.0,0.0,0.0,0.0,0.0,0.0,0.0
1494527320592052187,402,1494527321075346435,gyro_link,0.0,0.0,0.0,1.0,1.79769313486e+308,0.0,0.0,0.0,1.79769313486e+308,0.0,0.0,0.0,0.05,0.0,0.0,0.0,1.79769313486e+308,0.0,0.0,0.0,1.79769313486e+308,0.0,0.0,0.0,0.05,0.0,0.0,0.0,0.0,0.0,0.0,0.0,0.0,0.0,0.0,0.0,0.0
1494527320610811284,403,1494527321094027046,gyro_link,0.0,0.0,0.0,1.0,1.79769313486e+308,0.0,0.0,0.0,1.79769313486e+308,0.0,0.0,0.0,0.05,0.0,0.0,0.0,1.79769313486e+308,0.0,0.0,0.0,1.79769313486e+308,0.0,0.0,0.0,0.05,0.0,0.0,0.0,0.0,0.0,0.0,0.0,0.0,0.0,0.0,0.0,0.0
1494527320627370192,404,1494527321113257489,gyro_link,0.0,0.0,0.0,1.0,1.79769313486e+308,0.0,0.0,0.0,1.79769313486e+308,0.0,0.0,0.0,0.05,0.0,0.0,0.0,1.79769313486e+308,0.0,0.0,0.0,1.79769313486e+308,0.0,0.0,0.0,0.05,0.0,0.0,0.0,0.0,0.0,0.0,0.0,0.0,0.0,0.0,0.0,0.0
1494527320648864303,405,1494527321133479429,gyro_link,0.0,0.0,0.0,1.0,1.79769313486e+308,0.0,0.0,0.0,1.79769313486e+308,0.0,0.0,0.0,0.05,0.0,0.0,0.0,1.79769313486e+308,0.0,0.0,0.0,1.79769313486e+308,0.0,0.0,0.0,0.05,0.0,0.0,0.0,0.0,0.0,0.0,0.0,0.0,0.0,0.0,0.0,0.0
1494527320670579236,406,1494527321154578366,gyro_link,0.0,0.0,0.0,1.0,1.79769313486e+308,0.0,0.0,0.0,1.79769313486e+308,0.0,0.0,0.0,0.05,0.0,0.0,0.0,1.79769313486e+308,0.0,0.0,0.0,1.79769313486e+308,0.0,0.0,0.0,0.05,0.0,0.0,0.0,0.0,0.0,0.0,0.0,0.0,0.0,0.0,0.0,0.0
1494527320692499652,407,1494527321173317185,gyro_link,0.0,0.0,0.0,1.0,1.79769313486e+308,0.0,0.0,0.0,1.79769313486e+308,0.0,0.0,0.0,0.05,0.0,0.0,0.0,1.79769313486e+308,0.0,0.0,0.0,1.79769313486e+308,0.0,0.0,0.0,0.05,0.0,0.0,0.0,0.0,0.0,0.0,0.0,0.0,0.0,0.0,0.0,0.0
1494527320708166883,408,1494527321193328043,gyro_link,0.0,0.0,0.0,1.0,1.79769313486e+308,0.0,0.0,0.0,1.79769313486e+308,0.0,0.0,0.0,0.05,0.0,0.0,0.0,1.79769313486e+308,0.0,0.0,0.0,1.79769313486e+308,0.0,0.0,0.0,0.05,0.0,0.0,0.0,0.0,0.0,0.0,0.0,0.0,0.0,0.0,0.0,0.0
1494527320731791827,409,1494527321214027981,gyro_link,0.0,0.0,0.0,1.0,1.79769313486e+308,0.0,0.0,0.0,1.79769313486e+308,0.0,0.0,0.0,0.05,0.0,0.0,0.0,1.79769313486e+308,0.0,0.0,0.0,1.79769313486e+308,0.0,0.0,0.0,0.05,0.0,0.0,0.0,0.0,0.0,0.0,0.0,0.0,0.0,0.0,0.0,0.0
1494527320752202593,410,1494527321234182671,gyro_link,0.0,0.0,0.0,1.0,1.79769313486e+308,0.0,0.0,0.0,1.79769313486e+308,0.0,0.0,0.0,0.05,0.0,0.0,0.0,1.79769313486e+308,0.0,0.0,0.0,1.79769313486e+308,0.0,0.0,0.0,0.05,0.0,0.0,0.0,0.0,0.0,0.0,0.0,0.0,0.0,0.0,0.0,0.0
1494527320772607983,411,1494527321254118237,gyro_link,0.0,0.0,0.0,1.0,1.79769313486e+308,0.0,0.0,0.0,1.79769313486e+308,0.0,0.0,0.0,0.05,0.0,0.0,0.0,1.79769313486e+308,0.0,0.0,0.0,1.79769313486e+308,0.0,0.0,0.0,0.05,0.0,0.0,0.0,0.0,0.0,0.0,0.0,0.0,0.0,0.0,0.0,0.0
1494527320793762048,412,1494527321274381760,gyro_link,0.0,0.0,0.0,1.0,1.79769313486e+308,0.0,0.0,0.0,1.79769313486e+308,0.0,0.0,0.0,0.05,0.0,0.0,0.0,1.79769313486e+308,0.0,0.0,0.0,1.79769313486e+308,0.0,0.0,0.0,0.05,0.0,0.0,0.0,0.0,0.0,0.0,0.0,0.0,0.0,0.0,0.0,0.0
1494527320816874429,413,1494527321293818369,gyro_link,0.0,0.0,0.0,1.0,1.79769313486e+308,0.0,0.0,0.0,1.79769313486e+308,0.0,0.0,0.0,0.05,0.0,0.0,0.0,1.79769313486e+308,0.0,0.0,0.0,1.79769313486e+308,0.0,0.0,0.0,0.05,0.0,0.0,0.0,0.0,0.0,0.0,0.0,0.0,0.0,0.0,0.0,0.0
1494527320835330737,414,1494527321313445686,gyro_link,0.0,0.0,0.0,1.0,1.79769313486e+308,0.0,0.0,0.0,1.79769313486e+308,0.0,0.0,0.0,0.05,0.0,0.0,0.0,1.79769313486e+308,0.0,0.0,0.0,1.79769313486e+308,0.0,0.0,0.0,0.05,0.0,0.0,0.0,0.0,0.0,0.0,0.0,0.0,0.0,0.0,0.0,0.0
1494527320850002144,415,1494527321334518749,gyro_link,0.0,0.0,0.0,1.0,1.79769313486e+308,0.0,0.0,0.0,1.79769313486e+308,0.0,0.0,0.0,0.05,0.0,0.0,0.0,1.79769313486e+308,0.0,0.0,0.0,1.79769313486e+308,0.0,0.0,0.0,0.05,0.0,0.0,0.0,0.0,0.0,0.0,0.0,0.0,0.0,0.0,0.0,0.0
1494527320868154551,416,1494527321353280693,gyro_link,0.0,0.0,0.0,1.0,1.79769313486e+308,0.0,0.0,0.0,1.79769313486e+308,0.0,0.0,0.0,0.05,0.0,0.0,0.0,1.79769313486e+308,0.0,0.0,0.0,1.79769313486e+308,0.0,0.0,0.0,0.05,0.0,0.0,0.0,0.0,0.0,0.0,0.0,0.0,0.0,0.0,0.0,0.0
1494527320894152531,417,1494527321373302342,gyro_link,0.0,0.0,0.0,1.0,1.79769313486e+308,0.0,0.0,0.0,1.79769313486e+308,0.0,0.0,0.0,0.05,0.0,0.0,0.0,1.79769313486e+308,0.0,0.0,0.0,1.79769313486e+308,0.0,0.0,0.0,0.05,0.0,0.0,0.0,0.0,0.0,0.0,0.0,0.0,0.0,0.0,0.0,0.0
1494527320908931966,418,1494527321393228949,gyro_link,0.0,0.0,0.0,1.0,1.79769313486e+308,0.0,0.0,0.0,1.79769313486e+308,0.0,0.0,0.0,0.05,0.0,0.0,0.0,1.79769313486e+308,0.0,0.0,0.0,1.79769313486e+308,0.0,0.0,0.0,0.05,0.0,0.0,0.0,0.0,0.0,0.0,0.0,0.0,0.0,0.0,0.0,0.0
1494527320933425986,419,1494527321414017721,gyro_link,0.0,0.0,0.0,1.0,1.79769313486e+308,0.0,0.0,0.0,1.79769313486e+308,0.0,0.0,0.0,0.05,0.0,0.0,0.0,1.79769313486e+308,0.0,0.0,0.0,1.79769313486e+308,0.0,0.0,0.0,0.05,0.0,0.0,0.0,0.0,0.0,0.0,0.0,0.0,0.0,0.0,0.0,0.0
1494527320947951356,420,1494527321433537955,gyro_link,0.0,0.0,0.0,1.0,1.79769313486e+308,0.0,0.0,0.0,1.79769313486e+308,0.0,0.0,0.0,0.05,0.0,0.0,0.0,1.79769313486e+308,0.0,0.0,0.0,1.79769313486e+308,0.0,0.0,0.0,0.05,0.0,0.0,0.0,0.0,0.0,0.0,0.0,0.0,0.0,0.0,0.0,0.0
1494527320967569878,421,1494527321453135521,gyro_link,0.0,0.0,0.0,1.0,1.79769313486e+308,0.0,0.0,0.0,1.79769313486e+308,0.0,0.0,0.0,0.05,0.0,0.0,0.0,1.79769313486e+308,0.0,0.0,0.0,1.79769313486e+308,0.0,0.0,0.0,0.05,0.0,0.0,0.0,0.0,0.0,0.0,0.0,0.0,0.0,0.0,0.0,0.0
1494527320989313364,422,1494527321473363295,gyro_link,0.0,0.0,0.0,1.0,1.79769313486e+308,0.0,0.0,0.0,1.79769313486e+308,0.0,0.0,0.0,0.05,0.0,0.0,0.0,1.79769313486e+308,0.0,0.0,0.0,1.79769313486e+308,0.0,0.0,0.0,0.05,0.0,0.0,0.0,0.0,0.0,0.0,0.0,0.0,0.0,0.0,0.0,0.0
1494527321008952697,423,1494527321493472693,gyro_link,0.0,0.0,0.0,1.0,1.79769313486e+308,0.0,0.0,0.0,1.79769313486e+308,0.0,0.0,0.0,0.05,0.0,0.0,0.0,1.79769313486e+308,0.0,0.0,0.0,1.79769313486e+308,0.0,0.0,0.0,0.05,0.0,0.0,0.0,0.0,0.0,0.0,0.0,0.0,0.0,0.0,0.0,0.0
1494527321029427664,424,1494527321513647759,gyro_link,0.0,0.0,0.0,1.0,1.79769313486e+308,0.0,0.0,0.0,1.79769313486e+308,0.0,0.0,0.0,0.05,0.0,0.0,0.0,1.79769313486e+308,0.0,0.0,0.0,1.79769313486e+308,0.0,0.0,0.0,0.05,0.0,0.0,0.0,0.0,0.0,0.0,0.0,0.0,0.0,0.0,0.0,0.0
1494527321049274750,425,1494527321534224239,gyro_link,0.0,0.0,0.0,1.0,1.79769313486e+308,0.0,0.0,0.0,1.79769313486e+308,0.0,0.0,0.0,0.05,0.0,0.0,0.0,1.79769313486e+308,0.0,0.0,0.0,1.79769313486e+308,0.0,0.0,0.0,0.05,0.0,0.0,0.0,0.0,0.0,0.0,0.0,0.0,0.0,0.0,0.0,0.0
1494527321068446460,426,1494527321554154180,gyro_link,0.0,0.0,0.0,1.0,1.79769313486e+308,0.0,0.0,0.0,1.79769313486e+308,0.0,0.0,0.0,0.05,0.0,0.0,0.0,1.79769313486e+308,0.0,0.0,0.0,1.79769313486e+308,0.0,0.0,0.0,0.05,0.0,0.0,0.0,0.0,0.0,0.0,0.0,0.0,0.0,0.0,0.0,0.0
1494527321088012748,427,1494527321574102704,gyro_link,0.0,0.0,0.0,1.0,1.79769313486e+308,0.0,0.0,0.0,1.79769313486e+308,0.0,0.0,0.0,0.05,0.0,0.0,0.0,1.79769313486e+308,0.0,0.0,0.0,1.79769313486e+308,0.0,0.0,0.0,0.05,0.0,0.0,0.0,0.0,0.0,0.0,0.0,0.0,0.0,0.0,0.0,0.0
1494527321109199851,428,1494527321594342394,gyro_link,0.0,0.0,0.0,1.0,1.79769313486e+308,0.0,0.0,0.0,1.79769313486e+308,0.0,0.0,0.0,0.05,0.0,0.0,0.0,1.79769313486e+308,0.0,0.0,0.0,1.79769313486e+308,0.0,0.0,0.0,0.05,0.0,0.0,0.0,0.0,0.0,0.0,0.0,0.0,0.0,0.0,0.0,0.0
1494527321134412475,429,1494527321614995833,gyro_link,0.0,0.0,0.0,1.0,1.79769313486e+308,0.0,0.0,0.0,1.79769313486e+308,0.0,0.0,0.0,0.05,0.0,0.0,0.0,1.79769313486e+308,0.0,0.0,0.0,1.79769313486e+308,0.0,0.0,0.0,0.05,0.0,0.0,0.0,0.0,0.0,0.0,0.0,0.0,0.0,0.0,0.0,0.0
1494527321152813125,430,1494527321633604402,gyro_link,0.0,0.0,0.0,1.0,1.79769313486e+308,0.0,0.0,0.0,1.79769313486e+308,0.0,0.0,0.0,0.05,0.0,0.0,0.0,1.79769313486e+308,0.0,0.0,0.0,1.79769313486e+308,0.0,0.0,0.0,0.05,0.0,0.0,0.0,0.0,0.0,0.0,0.0,0.0,0.0,0.0,0.0,0.0
1494527321171795608,431,1494527321655640170,gyro_link,0.0,0.0,0.0,1.0,1.79769313486e+308,0.0,0.0,0.0,1.79769313486e+308,0.0,0.0,0.0,0.05,0.0,0.0,0.0,1.79769313486e+308,0.0,0.0,0.0,1.79769313486e+308,0.0,0.0,0.0,0.05,0.0,0.0,0.0,0.0,0.0,0.0,0.0,0.0,0.0,0.0,0.0,0.0
1494527321192142432,432,1494527321675187987,gyro_link,0.0,0.0,0.0,1.0,1.79769313486e+308,0.0,0.0,0.0,1.79769313486e+308,0.0,0.0,0.0,0.05,0.0,0.0,0.0,1.79769313486e+308,0.0,0.0,0.0,1.79769313486e+308,0.0,0.0,0.0,0.05,0.0,0.0,0.0,0.0,0.0,0.0,0.0,0.0,0.0,0.0,0.0,0.0
1494527321209677906,433,1494527321694541680,gyro_link,0.0,0.0,0.0,1.0,1.79769313486e+308,0.0,0.0,0.0,1.79769313486e+308,0.0,0.0,0.0,0.05,0.0,0.0,0.0,1.79769313486e+308,0.0,0.0,0.0,1.79769313486e+308,0.0,0.0,0.0,0.05,0.0,0.0,0.0,0.0,0.0,0.0,0.0,0.0,0.0,0.0,0.0,0.0
1494527321230569576,434,1494527321714186538,gyro_link,0.0,0.0,0.0,1.0,1.79769313486e+308,0.0,0.0,0.0,1.79769313486e+308,0.0,0.0,0.0,0.05,0.0,0.0,0.0,1.79769313486e+308,0.0,0.0,0.0,1.79769313486e+308,0.0,0.0,0.0,0.05,0.0,0.0,0.0,0.0,0.0,0.0,0.0,0.0,0.0,0.0,0.0,0.0
1494527321249348693,435,1494527321734189771,gyro_link,0.0,0.0,0.0,1.0,1.79769313486e+308,0.0,0.0,0.0,1.79769313486e+308,0.0,0.0,0.0,0.05,0.0,0.0,0.0,1.79769313486e+308,0.0,0.0,0.0,1.79769313486e+308,0.0,0.0,0.0,0.05,0.0,0.0,0.0,0.0,0.0,0.0,0.0,0.0,0.0,0.0,0.0,0.0
1494527321275380297,436,1494527321756236205,gyro_link,0.0,0.0,0.0,1.0,1.79769313486e+308,0.0,0.0,0.0,1.79769313486e+308,0.0,0.0,0.0,0.05,0.0,0.0,0.0,1.79769313486e+308,0.0,0.0,0.0,1.79769313486e+308,0.0,0.0,0.0,0.05,0.0,0.0,0.0,0.0,0.0,0.0,0.0,0.0,0.0,0.0,0.0,0.0
1494527321289677460,437,1494527321774244860,gyro_link,0.0,0.0,0.0,1.0,1.79769313486e+308,0.0,0.0,0.0,1.79769313486e+308,0.0,0.0,0.0,0.05,0.0,0.0,0.0,1.79769313486e+308,0.0,0.0,0.0,1.79769313486e+308,0.0,0.0,0.0,0.05,0.0,0.0,0.0,0.0,0.0,0.0,0.0,0.0,0.0,0.0,0.0,0.0
1494527321309562276,438,1494527321794161259,gyro_link,0.0,0.0,0.0,1.0,1.79769313486e+308,0.0,0.0,0.0,1.79769313486e+308,0.0,0.0,0.0,0.05,0.0,0.0,0.0,1.79769313486e+308,0.0,0.0,0.0,1.79769313486e+308,0.0,0.0,0.0,0.05,0.0,0.0,0.0,0.0,0.0,0.0,0.0,0.0,0.0,0.0,0.0,0.0
1494527321329716681,439,1494527321814457824,gyro_link,0.0,0.0,0.0,1.0,1.79769313486e+308,0.0,0.0,0.0,1.79769313486e+308,0.0,0.0,0.0,0.05,0.0,0.0,0.0,1.79769313486e+308,0.0,0.0,0.0,1.79769313486e+308,0.0,0.0,0.0,0.05,0.0,0.0,0.0,0.0,0.0,0.0,0.0,0.0,0.0,0.0,0.0,0.0
1494527321349925206,440,1494527321834196474,gyro_link,0.0,0.0,0.0,1.0,1.79769313486e+308,0.0,0.0,0.0,1.79769313486e+308,0.0,0.0,0.0,0.05,0.0,0.0,0.0,1.79769313486e+308,0.0,0.0,0.0,1.79769313486e+308,0.0,0.0,0.0,0.05,0.0,0.0,0.0,0.0,0.0,0.0,0.0,0.0,0.0,0.0,0.0,0.0
1494527321369548359,441,1494527321854498247,gyro_link,0.0,0.0,0.0,1.0,1.79769313486e+308,0.0,0.0,0.0,1.79769313486e+308,0.0,0.0,0.0,0.05,0.0,0.0,0.0,1.79769313486e+308,0.0,0.0,0.0,1.79769313486e+308,0.0,0.0,0.0,0.05,0.0,0.0,0.0,0.0,0.0,0.0,0.0,0.0,0.0,0.0,0.0,0.0
1494527321390922033,442,1494527321874457979,gyro_link,0.0,0.0,0.0,1.0,1.79769313486e+308,0.0,0.0,0.0,1.79769313486e+308,0.0,0.0,0.0,0.05,0.0,0.0,0.0,1.79769313486e+308,0.0,0.0,0.0,1.79769313486e+308,0.0,0.0,0.0,0.05,0.0,0.0,0.0,0.0,0.0,0.0,0.0,0.0,0.0,0.0,0.0,0.0
1494527321411380404,443,1494527321895673458,gyro_link,0.0,0.0,0.0,1.0,1.79769313486e+308,0.0,0.0,0.0,1.79769313486e+308,0.0,0.0,0.0,0.05,0.0,0.0,0.0,1.79769313486e+308,0.0,0.0,0.0,1.79769313486e+308,0.0,0.0,0.0,0.05,0.0,0.0,0.0,0.0,0.0,0.0,0.0,0.0,0.0,0.0,0.0,0.0
1494527321431466768,444,1494527321914320694,gyro_link,0.0,0.0,0.0,1.0,1.79769313486e+308,0.0,0.0,0.0,1.79769313486e+308,0.0,0.0,0.0,0.05,0.0,0.0,0.0,1.79769313486e+308,0.0,0.0,0.0,1.79769313486e+308,0.0,0.0,0.0,0.05,0.0,0.0,0.0,0.0,0.0,0.0,0.0,0.0,0.0,0.0,0.0,0.0
1494527321450607734,445,1494527321934706509,gyro_link,0.0,0.0,0.0,1.0,1.79769313486e+308,0.0,0.0,0.0,1.79769313486e+308,0.0,0.0,0.0,0.05,0.0,0.0,0.0,1.79769313486e+308,0.0,0.0,0.0,1.79769313486e+308,0.0,0.0,0.0,0.05,0.0,0.0,0.0,0.0,0.0,0.0,0.0,0.0,0.0,0.0,0.0,0.0
1494527321470803391,446,1494527321954748991,gyro_link,0.0,0.0,0.0,1.0,1.79769313486e+308,0.0,0.0,0.0,1.79769313486e+308,0.0,0.0,0.0,0.05,0.0,0.0,0.0,1.79769313486e+308,0.0,0.0,0.0,1.79769313486e+308,0.0,0.0,0.0,0.05,0.0,0.0,0.0,0.0,0.0,0.0,0.0,0.0,0.0,0.0,0.0,0.0
1494527321490014627,447,1494527321975297971,gyro_link,0.0,0.0,0.0,1.0,1.79769313486e+308,0.0,0.0,0.0,1.79769313486e+308,0.0,0.0,0.0,0.05,0.0,0.0,0.0,1.79769313486e+308,0.0,0.0,0.0,1.79769313486e+308,0.0,0.0,0.0,0.05,0.0,0.0,0.0,0.0,0.0,0.0,0.0,0.0,0.0,0.0,0.0,0.0
1494527321509540086,448,1494527321993947374,gyro_link,0.0,0.0,0.0,1.0,1.79769313486e+308,0.0,0.0,0.0,1.79769313486e+308,0.0,0.0,0.0,0.05,0.0,0.0,0.0,1.79769313486e+308,0.0,0.0,0.0,1.79769313486e+308,0.0,0.0,0.0,0.05,0.0,0.0,0.0,0.0,0.0,0.0,0.0,0.0,0.0,0.0,0.0,0.0
1494527321528934418,449,1494527322014165606,gyro_link,0.0,0.0,0.0,1.0,1.79769313486e+308,0.0,0.0,0.0,1.79769313486e+308,0.0,0.0,0.0,0.05,0.0,0.0,0.0,1.79769313486e+308,0.0,0.0,0.0,1.79769313486e+308,0.0,0.0,0.0,0.05,0.0,0.0,0.0,0.0,0.0,0.0,0.0,0.0,0.0,0.0,0.0,0.0
