%time,field.header.seq,field.header.stamp,field.header.frame_id,field.orientation.x,field.orientation.y,field.orientation.z,field.orientation.w,field.orientation_covariance0,field.orientation_covariance1,field.orientation_covariance2,field.orientation_covariance3,field.orientation_covariance4,field.orientation_covariance5,field.orientation_covariance6,field.orientation_covariance7,field.orientation_covariance8,field.angular_velocity.x,field.angular_velocity.y,field.angular_velocity.z,field.angular_velocity_covariance0,field.angular_velocity_covariance1,field.angular_velocity_covariance2,field.angular_velocity_covariance3,field.angular_velocity_covariance4,field.angular_velocity_covariance5,field.angular_velocity_covariance6,field.angular_velocity_covariance7,field.angular_velocity_covariance8,field.linear_acceleration.x,field.linear_acceleration.y,field.linear_acceleration.z,field.linear_acceleration_covariance0,field.linear_acceleration_covariance1,field.linear_acceleration_covariance2,field.linear_acceleration_covariance3,field.linear_acceleration_covariance4,field.linear_acceleration_covariance5,field.linear_acceleration_covariance6,field.linear_acceleration_covariance7,field.linear_acceleration_covariance8
1494526700934768575,0,1494526699539123194,gyro_link,0.0,0.0,0.0,1.0,1.79769313486e+308,0.0,0.0,0.0,1.79769313486e+308,0.0,0.0,0.0,0.05,0.0,0.0,0.0,1.79769313486e+308,0.0,0.0,0.0,1.79769313486e+308,0.0,0.0,0.0,0.05,0.0,0.0,0.0,0.0,0.0,0.0,0.0,0.0,0.0,0.0,0.0,0.0
1494526700934782141,1,1494526699559310006,gyro_link,0.0,0.0,0.0,1.0,1.79769313486e+308,0.0,0.0,0.0,1.79769313486e+308,0.0,0.0,0.0,0.05,0.0,0.0,0.0,1.79769313486e+308,0.0,0.0,0.0,1.79769313486e+308,0.0,0.0,0.0,0.05,0.0,0.0,0.0,0.0,0.0,0.0,0.0,0.0,0.0,0.0,0.0,0.0
1494526700934790515,2,1494526699579320235,gyro_link,0.0,0.0,0.0,1.0,1.79769313486e+308,0.0,0.0,0.0,1.79769313486e+308,0.0,0.0,0.0,0.05,0.0,0.0,0.0,1.79769313486e+308,0.0,0.0,0.0,1.79769313486e+308,0.0,0.0,0.0,0.05,0.0,0.0,0.0,0.0,0.0,0.0,0.0,0.0,0.0,0.0,0.0,0.0
1494526700934798751,3,1494526699599682671,gyro_link,0.0,0.0,0.0,1.0,1.79769313486e+308,0.0,0.0,0.0,1.79769313486e+308,0.0,0.0,0.0,0.05,0.0,0.0,0.0,1.79769313486e+308,0.0,0.0,0.0,1.79769313486e+308,0.0,0.0,0.0,0.05,0.0,0.0,0.0,0.0,0.0,0.0,0.0,0.0,0.0,0.0,0.0,0.0
1494526700934806642,4,1494526699619481943,gyro_link,0.0,0.0,0.0,1.0,1.79769313486e+308,0.0,0.0,0.0,1.79769313486e+308,0.0,0.0,0.0,0.05,0.0,0.0,0.0,1.79769313486e+308,0.0,0.0,0.0,1.79769313486e+308,0.0,0.0,0.0,0.05,0.0,0.0,0.0,0.0,0.0,0.0,0.0,0.0,0.0,0.0,0.0,0.0
1494526700934814126,5,1494526699645671628,gyro_link,0.0,0.0,0.0,1.0,1.79769313486e+308,0.0,0.0,0.0,1.79769313486e+308,0.0,0.0,0.0,0.05,0.0,0.0,0.0,1.79769313486e+308,0.0,0.0,0.0,1.79769313486e+308,0.0,0.0,0.0,0.05,0.0,0.0,0.0,0.0,0.0,0.0,0.0,0.0,0.0,0.0,0.0,0.0
1494526700934820987,6,1494526699660359396,gyro_link,0.0,0.0,0.0,1.0,1.79769313486e+308,0.0,0.0,0.0,1.79769313486e+308,0.0,0.0,0.0,0.05,0.0,0.0,0.0,1.79769313486e+308,0.0,0.0,0.0,1.79769313486e+308,0.0,0.0,0.0,0.05,0.0,0.0,0.0,0.0,0.0,0.0,0.0,0.0,0.0,0.0,0.0,0.0
1494526700934827958,7,1494526699679351592,gyro_link,0.0,0.0,0.0,1.0,1.79769313486e+308,0.0,0.0,0.0,1.79769313486e+308,0.0,0.0,0.0,0.05,0.0,0.0,0.0,1.79769313486e+308,0.0,0.0,0.0,1.79769313486e+308,0.0,0.0,0.0,0.05,0.0,0.0,0.0,0.0,0.0,0.0,0.0,0.0,0.0,0.0,0.0,0.0
1494526700934834136,8,1494526699699341780,gyro_link,0.0,0.0,0.0,1.0,1.79769313486e+308,0.0,0.0,0.0,1.79769313486e+308,0.0,0.0,0.0,0.05,0.0,0.0,0.0,1.79769313486e+308,0.0,0.0,0.0,1.79769313486e+308,0.0,0.0,0.0,0.05,0.0,0.0,0.0,0.0,0.0,0.0,0.0,0.0,0.0,0.0,0.0,0.0
1494526700934840757,9,1494526699720636667,gyro_link,0.0,0.0,0.0,1.0,1.79769313486e+308,0.0,0.0,0.0,1.79769313486e+308,0.0,0.0,0.0,0.05,0.0,0.0,0.0,1.79769313486e+308,0.0,0.0,0.0,1.79769313486e+308,0.0,0.0,0.0,0.05,0.0,0.0,0.0,0.0,0.0,0.0,0.0,0.0,0.0,0.0,0.0,0.0
1494526700934866124,10,1494526699741908304,gyro_link,0.0,0.0,0.0,1.0,1.79769313486e+308,0.0,0.0,0.0,1.79769313486e+308,0.0,0.0,0.0,0.05,0.0,0.0,0.0,1.79769313486e+308,0.0,0.0,0.0,1.79769313486e+308,0.0,0.0,0.0,0.05,0.0,0.0,0.0,0.0,0.0,0.0,0.0,0.0,0.0,0.0,0.0,0.0
1494526700934873525,11,1494526699759172803,gyro_link,0.0,0.0,0.0,1.0,1.79769313486e+308,0.0,0.0,0.0,1.79769313486e+308,0.0,0.0,0.0,0.05,0.0,0.0,0.0,1.79769313486e+308,0.0,0.0,0.0,1.79769313486e+308,0.0,0.0,0.0,0.05,0.0,0.0,0.0,0.0,0.0,0.0,0.0,0.0,0.0,0.0,0.0,0.0
1494526700934879599,12,1494526699779141492,gyro_link,0.0,0.0,0.0,1.0,1.79769313486e+308,0.0,0.0,0.0,1.79769313486e+308,0.0,0.0,0.0,0.05,0.0,0.0,0.0,1.79769313486e+308,0.0,0.0,0.0,1.79769313486e+308,0.0,0.0,0.0,0.05,0.0,0.0,0.0,0.0,0.0,0.0,0.0,0.0,0.0,0.0,0.0,0.0
1494526700934888175,13,1494526699799041222,gyro_link,0.0,0.0,0.0,1.0,1.79769313486e+308,0.0,0.0,0.0,1.79769313486e+308,0.0,0.0,0.0,0.05,0.0,0.0,0.0,1.79769313486e+308,0.0,0.0,0.0,1.79769313486e+308,0.0,0.0,0.0,0.05,0.0,0.0,0.0,0.0,0.0,0.0,0.0,0.0,0.0,0.0,0.0,0.0
1494526700934894211,14,1494526699819143701,gyro_link,0.0,0.0,0.0,1.0,1.79769313486e+308,0.0,0.0,0.0,1.79769313486e+308,0.0,0.0,0.0,0.05,0.0,0.0,0.0,1.79769313486e+308,0.0,0.0,0.0,1.79769313486e+308,0.0,0.0,0.0,0.05,0.0,0.0,0.0,0.0,0.0,0.0,0.0,0.0,0.0,0.0,0.0,0.0
1494526700934900163,15,1494526699840996417,gyro_link,0.0,0.0,0.0,1.0,1.79769313486e+308,0.0,0.0,0.0,1.79769313486e+308,0.0,0.0,0.0,0.05,0.0,0.0,0.0,1.79769313486e+308,0.0,0.0,0.0,1.79769313486e+308,0.0,0.0,0.0,0.05,0.0,0.0,0.0,0.0,0.0,0.0,0.0,0.0,0.0,0.0,0.0,0.0
1494526700934905254,16,1494526699860955439,gyro_link,0.0,0.0,0.0,1.0,1.79769313486e+308,0.0,0.0,0.0,1.79769313486e+308,0.0,0.0,0.0,0.05,0.0,0.0,0.0,1.79769313486e+308,0.0,0.0,0.0,1.79769313486e+308,0.0,0.0,0.0,0.05,0.0,0.0,0.0,0.0,0.0,0.0,0.0,0.0,0.0,0.0,0.0,0.0
1494526700934913698,17,1494526699879208348,gyro_link,0.0,0.0,0.0,1.0,1.79769313486e+308,0.0,0.0,0.0,1.79769313486e+308,0.0,0.0,0.0,0.05,0.0,0.0,0.0,1.79769313486e+308,0.0,0.0,0.0,1.79769313486e+308,0.0,0.0,0.0,0.05,0.0,0.0,0.0,0.0,0.0,0.0,0.0,0.0,0.0,0.0,0.0,0.0
1494526700934921328,18,1494526699899183161,gyro_link,0.0,0.0,0.0,1.0,1.79769313486e+308,0.0,0.0,0.0,1.79769313486e+308,0.0,0.0,0.0,0.05,0.0,0.0,0.0,1.79769313486e+308,0.0,0.0,0.0,1.79769313486e+308,0.0,0.0,0.0,0.05,0.0,0.0,0.0,0.0,0.0,0.0,0.0,0.0,0.0,0.0,0.0,0.0
1494526700934930444,19,1494526699919095350,gyro_link,0.0,0.0,0.0,1.0,1.79769313486e+308,0.0,0.0,0.0,1.79769313486e+308,0.0,0.0,0.0,0.05,0.0,0.0,0.0,1.79769313486e+308,0.0,0.0,0.0,1.79769313486e+308,0.0,0.0,0.0,0.05,0.0,0.0,0.0,0.0,0.0,0.0,0.0,0.0,0.0,0.0,0.0,0.0
1494526700934938590,20,1494526699939222953,gyro_link,0.0,0.0,0.0,1.0,1.79769313486e+308,0.0,0.0,0.0,1.79769313486e+308,0.0,0.0,0.0,0.05,0.0,0.0,0.0,1.79769313486e+308,0.0,0.0,0.0,1.79769313486e+308,0.0,0.0,0.0,0.05,0.0,0.0,0.0,0.0,0.0,0.0,0.0,0.0,0.0,0.0,0.0,0.0
1494526700934949805,21,1494526699959155308,gyro_link,0.0,0.0,0.0,1.0,1.79769313486e+308,0.0,0.0,0.0,1.79769313486e+308,0.0,0.0,0.0,0.05,0.0,0.0,0.0,1.79769313486e+308,0.0,0.0,0.0,1.79769313486e+308,0.0,0.0,0.0,0.05,0.0,0.0,0.0,0.0,0.0,0.0,0.0,0.0,0.0,0.0,0.0,0.0
1494526700934959977,22,1494526699980365904,gyro_link,0.0,0.0,0.0,1.0,1.79769313486e+308,0.0,0.0,0.0,1.79769313486e+308,0.0,0.0,0.0,0.05,0.0,0.0,0.0,1.79769313486e+308,0.0,0.0,0.0,1.79769313486e+308,0.0,0.0,0.0,0.05,0.0,0.0,0.0,0.0,0.0,0.0,0.0,0.0,0.0,0.0,0.0,0.0
1494526700934969899,23,1494526699999399849,gyro_link,0.0,0.0,0.0,1.0,1.79769313486e+308,0.0,0.0,0.0,1.79769313486e+308,0.0,0.0,0.0,0.05,0.0,0.0,0.0,1.79769313486e+308,0.0,0.0,0.0,1.79769313486e+308,0.0,0.0,0.0,0.05,0.0,0.0,0.0,0.0,0.0,0.0,0.0,0.0,0.0,0.0,0.0,0.0
1494526700934976993,24,1494526700019154331,gyro_link,0.0,0.0,0.0,1.0,1.79769313486e+308,0.0,0.0,0.0,1.79769313486e+308,0.0,0.0,0.0,0.05,0.0,0.0,0.0,1.79769313486e+308,0.0,0.0,0.0,1.79769313486e+308,0.0,0.0,0.0,0.05,0.0,0.0,0.0,0.0,0.0,0.0,0.0,0.0,0.0,0.0,0.0,0.0
1494526700934988166,25,1494526700040275427,gyro_link,0.0,0.0,0.0,1.0,1.79769313486e+308,0.0,0.0,0.0,1.79769313486e+308,0.0,0.0,0.0,0.05,0.0,0.0,0.0,1.79769313486e+308,0.0,0.0,0.0,1.79769313486e+308,0.0,0.0,0.0,0.05,0.0,0.0,0.0,0.0,0.0,0.0,0.0,0.0,0.0,0.0,0.0,0.0
1494526700934996600,26,1494526700059136749,gyro_link,0.0,0.0,0.0,1.0,1.79769313486e+308,0.0,0.0,0.0,1.79769313486e+308,0.0,0.0,0.0,0.05,0.0,0.0,0.0,1.79769313486e+308,0.0,0.0,0.0,1.79769313486e+308,0.0,0.0,0.0,0.05,0.0,0.0,0.0,0.0,0.0,0.0,0.0,0.0,0.0,0.0,0.0,0.0
1494526700935004101,27,1494526700079907389,gyro_link,0.0,0.0,0.0,1.0,1.79769313486e+308,0.0,0.0,0.0,1.79769313486e+308,0.0,0.0,0.0,0.05,0.0,0.0,0.0,1.79769313486e+308,0.0,0.0,0.0,1.79769313486e+308,0.0,0.0,0.0,0.05,0.0,0.0,0.0,0.0,0.0,0.0,0.0,0.0,0.0,0.0,0.0,0.0
1494526700935013503,28,1494526700100279616,gyro_link,0.0,0.0,0.0,1.0,1.79769313486e+308,0.0,0.0,0.0,1.79769313486e+308,0.0,0.0,0.0,0.05,0.0,0.0,0.0,1.79769313486e+308,0.0,0.0,0.0,1.79769313486e+308,0.0,0.0,0.0,0.05,0.0,0.0,0.0,0.0,0.0,0.0,0.0,0.0,0.0,0.0,0.0,0.0
1494526700935020864,29,1494526700120113472,gyro_link,0.0,0.0,0.0,1.0,1.79769313486e+308,0.0,0.0,0.0,1.79769313486e+308,0.0,0.0,0.0,0.05,0.0,0.0,0.0,1.79769313486e+308,0.0,0.0,0.0,1.79769313486e+308,0.0,0.0,0.0,0.05,0.0,0.0,0.0,0.0,0.0,0.0,0.0,0.0,0.0,0.0,0.0,0.0
1494526700935041145,30,1494526700139125292,gyro_link,0.0,0.0,0.0,1.0,1.79769313486e+308,0.0,0.0,0.0,1.79769313486e+308,0.0,0.0,0.0,0.05,0.0,0.0,0.0,1.79769313486e+308,0.0,0.0,0.0,1.79769313486e+308,0.0,0.0,0.0,0.05,0.0,0.0,0.0,0.0,0.0,0.0,0.0,0.0,0.0,0.0,0.0,0.0
1494526700935057650,31,1494526700159210771,gyro_link,0.0,0.0,0.0,1.0,1.79769313486e+308,0.0,0.0,0.0,1.79769313486e+308,0.0,0.0,0.0,0.05,0.0,0.0,0.0,1.79769313486e+308,0.0,0.0,0.0,1.79769313486e+308,0.0,0.0,0.0,0.05,0.0,0.0,0.0,0.0,0.0,0.0,0.0,0.0,0.0,0.0,0.0,0.0
1494526700935064275,32,1494526700180052787,gyro_link,0.0,0.0,0.0,1.0,1.79769313486e+308,0.0,0.0,0.0,1.79769313486e+308,0.0,0.0,0.0,0.05,0.0,0.0,0.0,1.79769313486e+308,0.0,0.0,0.0,1.79769313486e+308,0.0,0.0,0.0,0.05,0.0,0.0,0.0,0.0,0.0,0.0,0.0,0.0,0.0,0.0,0.0,0.0
1494526700935078460,33,1494526700198975274,gyro_link,0.0,0.0,0.0,1.0,1.79769313486e+308,0.0,0.0,0.0,1.79769313486e+308,0.0,0.0,0.0,0.05,0.0,0.0,0.0,1.79769313486e+308,0.0,0.0,0.0,1.79769313486e+308,0.0,0.0,0.0,0.05,0.0,0.0,0.0,0.0,0.0,0.0,0.0,0.0,0.0,0.0,0.0,0.0
1494526700935092248,34,1494526700220135620,gyro_link,0.0,0.0,0.0,1.0,1.79769313486e+308,0.0,0.0,0.0,1.79769313486e+308,0.0,0.0,0.0,0.05,0.0,0.0,0.0,1.79769313486e+308,0.0,0.0,0.0,1.79769313486e+308,0.0,0.0,0.0,0.05,0.0,0.0,0.0,0.0,0.0,0.0,0.0,0.0,0.0,0.0,0.0,0.0
1494526700935099440,35,1494526700240223516,gyro_link,0.0,0.0,0.0,1.0,1.79769313486e+308,0.0,0.0,0.0,1.79769313486e+308,0.0,0.0,0.0,0.05,0.0,0.0,0.0,1.79769313486e+308,0.0,0.0,0.0,1.79769313486e+308,0.0,0.0,0.0,0.05,0.0,0.0,0.0,0.0,0.0,0.0,0.0,0.0,0.0,0.0,0.0,0.0
1494526700935106334,36,1494526700260204746,gyro_link,0.0,0.0,0.0,1.0,1.79769313486e+308,0.0,0.0,0.0,1.79769313486e+308,0.0,0.0,0.0,0.05,0.0,0.0,0.0,1.79769313486e+308,0.0,0.0,0.0,1.79769313486e+308,0.0,0.0,0.0,0.05,0.0,0.0,0.0,0.0,0.0,0.0,0.0,0.0,0.0,0.0,0.0,0.0
1494526700935117274,37,1494526700280417682,gyro_link,0.0,0.0,0.0,1.0,1.79769313486e+308,0.0,0.0,0.0,1.79769313486e+308,0.0,0.0,0.0,0.05,0.0,0.0,0.0,1.79769313486e+308,0.0,0.0,0.0,1.79769313486e+308,0.0,0.0,0.0,0.05,0.0,0.0,0.0,0.0,0.0,0.0,0.0,0.0,0.0,0.0,0.0,0.0
1494526700935123721,38,1494526700300435787,gyro_link,0.0,0.0,0.0,1.0,1.79769313486e+308,0.0,0.0,0.0,1.79769313486e+308,0.0,0.0,0.0,0.05,0.0,0.0,0.0,1.79769313486e+308,0.0,0.0,0.0,1.79769313486e+308,0.0,0.0,0.0,0.05,0.0,0.0,0.0,0.0,0.0,0.0,0.0,0.0,0.0,0.0,0.0,0.0
1494526700935131146,39,1494526700319616689,gyro_link,0.0,0.0,0.0,1.0,1.79769313486e+308,0.0,0.0,0.0,1.79769313486e+308,0.0,0.0,0.0,0.05,0.0,0.0,0.0,1.79769313486e+308,0.0,0.0,0.0,1.79769313486e+308,0.0,0.0,0.0,0.05,0.0,0.0,0.0,0.0,0.0,0.0,0.0,0.0,0.0,0.0,0.0,0.0
1494526700935139332,40,1494526700340014916,gyro_link,0.0,0.0,0.0,1.0,1.79769313486e+308,0.0,0.0,0.0,1.79769313486e+308,0.0,0.0,0.0,0.05,0.0,0.0,0.0,1.79769313486e+308,0.0,0.0,0.0,1.79769313486e+308,0.0,0.0,0.0,0.05,0.0,0.0,0.0,0.0,0.0,0.0,0.0,0.0,0.0,0.0,0.0,0.0
1494526700935147855,41,1494526700367061594,gyro_link,0.0,0.0,0.0,1.0,1.79769313486e+308,0.0,0.0,0.0,1.79769313486e+308,0.0,0.0,0.0,0.05,0.0,0.0,0.0,1.79769313486e+308,0.0,0.0,0.0,1.79769313486e+308,0.0,0.0,0.0,0.05,0.0,0.0,0.0,0.0,0.0,0.0,0.0,0.0,0.0,0.0,0.0,0.0
1494526700935155199,42,1494526700380563121,gyro_link,0.0,0.0,0.0,1.0,1.79769313486e+308,0.0,0.0,0.0,1.79769313486e+308,0.0,0.0,0.0,0.05,0.0,0.0,0.0,1.79769313486e+308,0.0,0.0,0.0,1.79769313486e+308,0.0,0.0,0.0,0.05,0.0,0.0,0.0,0.0,0.0,0.0,0.0,0.0,0.0,0.0,0.0,0.0
1494526700935245734,43,1494526700401017806,gyro_link,0.0,0.0,0.0,1.0,1.79769313486e+308,0.0,0.0,0.0,1.79769313486e+308,0.0,0.0,0.0,0.05,0.0,0.0,0.0,1.79769313486e+308,0.0,0.0,0.0,1.79769313486e+308,0.0,0.0,0.0,0.05,0.0,0.0,0.0,0.0,0.0,0.0,0.0,0.0,0.0,0.0,0.0,0.0
1494526700935256987,44,1494526700422958188,gyro_link,0.0,0.0,0.0,1.0,1.79769313486e+308,0.0,0.0,0.0,1.79769313486e+308,0.0,0.0,0.0,0.05,0.0,0.0,0.0,1.79769313486e+308,0.0,0.0,0.0,1.79769313486e+308,0.0,0.0,0.0,0.05,0.0,0.0,0.0,0.0,0.0,0.0,0.0,0.0,0.0,0.0,0.0,0.0
1494526700936013761,45,1494526700440221646,gyro_link,0.0,0.0,0.0,1.0,1.79769313486e+308,0.0,0.0,0.0,1.79769313486e+308,0.0,0.0,0.0,0.05,0.0,0.0,0.0,1.79769313486e+308,0.0,0.0,0.0,1.79769313486e+308,0.0,0.0,0.0,0.05,0.0,0.0,0.0,0.0,0.0,0.0,0.0,0.0,0.0,0.0,0.0,0.0
1494526700936019880,46,1494526700460238959,gyro_link,0.0,0.0,0.0,1.0,1.79769313486e+308,0.0,0.0,0.0,1.79769313486e+308,0.0,0.0,0.0,0.05,0.0,0.0,0.0,1.79769313486e+308,0.0,0.0,0.0,1.79769313486e+308,0.0,0.0,0.0,0.05,0.0,0.0,0.0,0.0,0.0,0.0,0.0,0.0,0.0,0.0,0.0,0.0
1494526700936026102,47,1494526700480007690,gyro_link,0.0,0.0,0.0,1.0,1.79769313486e+308,0.0,0.0,0.0,1.79769313486e+308,0.0,0.0,0.0,0.05,0.0,0.0,0.0,1.79769313486e+308,0.0,0.0,0.0,1.79769313486e+308,0.0,0.0,0.0,0.05,0.0,0.0,0.0,0.0,0.0,0.0,0.0,0.0,0.0,0.0,0.0,0.0
1494526700936032294,48,1494526700500152377,gyro_link,0.0,0.0,0.0,1.0,1.79769313486e+308,0.0,0.0,0.0,1.79769313486e+308,0.0,0.0,0.0,0.05,0.0,0.0,0.0,1.79769313486e+308,0.0,0.0,0.0,1.79769313486e+308,0.0,0.0,0.0,0.05,0.0,0.0,0.0,0.0,0.0,0.0,0.0,0.0,0.0,0.0,0.0,0.0
1494526700936039092,49,1494526700520445438,gyro_link,0.0,0.0,0.0,1.0,1.79769313486e+308,0.0,0.0,0.0,1.79769313486e+308,0.0,0.0,0.0,0.05,0.0,0.0,0.0,1.79769313486e+308,0.0,0.0,0.0,1.79769313486e+308,0.0,0.0,0.0,0.05,0.0,0.0,0.0,0.0,0.0,0.0,0.0,0.0,0.0,0.0,0.0,0.0
1494526700936045914,50,1494526700545532756,gyro_link,0.0,0.0,0.0,1.0,1.79769313486e+308,0.0,0.0,0.0,1.79769313486e+308,0.0,0.0,0.0,0.05,0.0,0.0,0.0,1.79769313486e+308,0.0,0.0,0.0,1.79769313486e+308,0.0,0.0,0.0,0.05,0.0,0.0,0.0,0.0,0.0,0.0,0.0,0.0,0.0,0.0,0.0,0.0
1494526700936052250,51,1494526700560764478,gyro_link,0.0,0.0,0.0,1.0,1.79769313486e+308,0.0,0.0,0.0,1.79769313486e+308,0.0,0.0,0.0,0.05,0.0,0.0,0.0,1.79769313486e+308,0.0,0.0,0.0,1.79769313486e+308,0.0,0.0,0.0,0.05,0.0,0.0,0.0,0.0,0.0,0.0,0.0,0.0,0.0,0.0,0.0,0.0
1494526700936058572,52,1494526700580112296,gyro_link,0.0,0.0,0.0,1.0,1.79769313486e+308,0.0,0.0,0.0,1.79769313486e+308,0.0,0.0,0.0,0.05,0.0,0.0,0.0,1.79769313486e+308,0.0,0.0,0.0,1.79769313486e+308,0.0,0.0,0.0,0.05,0.0,0.0,0.0,0.0,0.0,0.0,0.0,0.0,0.0,0.0,0.0,0.0
1494526700936064870,53,1494526700601053852,gyro_link,0.0,0.0,0.0,1.0,1.79769313486e+308,0.0,0.0,0.0,1.79769313486e+308,0.0,0.0,0.0,0.05,0.0,0.0,0.0,1.79769313486e+308,0.0,0.0,0.0,1.79769313486e+308,0.0,0.0,0.0,0.05,0.0,0.0,0.0,0.0,0.0,0.0,0.0,0.0,0.0,0.0,0.0,0.0
1494526700936073996,54,1494526700620203255,gyro_link,0.0,0.0,0.0,1.0,1.79769313486e+308,0.0,0.0,0.0,1.79769313486e+308,0.0,0.0,0.0,0.05,0.0,0.0,0.0,1.79769313486e+308,0.0,0.0,0.0,1.79769313486e+308,0.0,0.0,0.0,0.05,0.0,0.0,0.0,0.0,0.0,0.0,0.0,0.0,0.0,0.0,0.0,0.0
1494526700936087927,55,1494526700640186985,gyro_link,0.0,0.0,0.0,1.0,1.79769313486e+308,0.0,0.0,0.0,1.79769313486e+308,0.0,0.0,0.0,0.05,0.0,0.0,0.0,1.79769313486e+308,0.0,0.0,0.0,1.79769313486e+308,0.0,0.0,0.0,0.05,0.0,0.0,0.0,0.0,0.0,0.0,0.0,0.0,0.0,0.0,0.0,0.0
1494526700936094659,56,1494526700660310338,gyro_link,0.0,0.0,0.0,1.0,1.79769313486e+308,0.0,0.0,0.0,1.79769313486e+308,0.0,0.0,0.0,0.05,0.0,0.0,0.0,1.79769313486e+308,0.0,0.0,0.0,1.79769313486e+308,0.0,0.0,0.0,0.05,0.0,0.0,0.0,0.0,0.0,0.0,0.0,0.0,0.0,0.0,0.0,0.0
1494526700936101259,57,1494526700680995355,gyro_link,0.0,0.0,0.0,1.0,1.79769313486e+308,0.0,0.0,0.0,1.79769313486e+308,0.0,0.0,0.0,0.05,0.0,0.0,0.0,1.79769313486e+308,0.0,0.0,0.0,1.79769313486e+308,0.0,0.0,0.0,0.05,0.0,0.0,0.0,0.0,0.0,0.0,0.0,0.0,0.0,0.0,0.0,0.0
1494526700936109241,58,1494526700700988584,gyro_link,0.0,0.0,0.0,1.0,1.79769313486e+308,0.0,0.0,0.0,1.79769313486e+308,0.0,0.0,0.0,0.05,0.0,0.0,0.0,1.79769313486e+308,0.0,0.0,0.0,1.79769313486e+308,0.0,0.0,0.0,0.05,0.0,0.0,0.0,0.0,0.0,0.0,0.0,0.0,0.0,0.0,0.0,0.0
1494526700936117214,59,1494526700720935564,gyro_link,0.0,0.0,0.0,1.0,1.79769313486e+308,0.0,0.0,0.0,1.79769313486e+308,0.0,0.0,0.0,0.05,0.0,0.0,0.0,1.79769313486e+308,0.0,0.0,0.0,1.79769313486e+308,0.0,0.0,0.0,0.05,0.0,0.0,0.0,0.0,0.0,0.0,0.0,0.0,0.0,0.0,0.0,0.0
1494526700936124449,60,1494526700740352257,gyro_link,0.0,0.0,0.0,1.0,1.79769313486e+308,0.0,0.0,0.0,1.79769313486e+308,0.0,0.0,0.0,0.05,0.0,0.0,0.0,1.79769313486e+308,0.0,0.0,0.0,1.79769313486e+308,0.0,0.0,0.0,0.05,0.0,0.0,0.0,0.0,0.0,0.0,0.0,0.0,0.0,0.0,0.0,0.0
1494526700936135292,61,1494526700760206862,gyro_link,0.0,0.0,0.0,1.0,1.79769313486e+308,0.0,0.0,0.0,1.79769313486e+308,0.0,0.0,0.0,0.05,0.0,0.0,0.0,1.79769313486e+308,0.0,0.0,0.0,1.79769313486e+308,0.0,0.0,0.0,0.05,0.0,0.0,0.0,0.0,0.0,0.0,0.0,0.0,0.0,0.0,0.0,0.0
1494526700936146264,62,1494526700780163717,gyro_link,0.0,0.0,0.0,1.0,1.79769313486e+308,0.0,0.0,0.0,1.79769313486e+308,0.0,0.0,0.0,0.05,0.0,0.0,0.0,1.79769313486e+308,0.0,0.0,0.0,1.79769313486e+308,0.0,0.0,0.0,0.05,0.0,0.0,0.0,0.0,0.0,0.0,0.0,0.0,0.0,0.0,0.0,0.0
1494526700936153232,63,1494526700801012066,gyro_link,0.0,0.0,0.0,1.0,1.79769313486e+308,0.0,0.0,0.0,1.79769313486e+308,0.0,0.0,0.0,0.05,0.0,0.0,0.0,1.79769313486e+308,0.0,0.0,0.0,1.79769313486e+308,0.0,0.0,0.0,0.05,0.0,0.0,0.0,0.0,0.0,0.0,0.0,0.0,0.0,0.0,0.0,0.0
1494526700936160319,64,1494526700820648090,gyro_link,0.0,0.0,0.0,1.0,1.79769313486e+308,0.0,0.0,0.0,1.79769313486e+308,0.0,0.0,0.0,0.05,0.0,0.0,0.0,1.79769313486e+308,0.0,0.0,0.0,1.79769313486e+308,0.0,0.0,0.0,0.05,0.0,0.0,0.0,0.0,0.0,0.0,0.0,0.0,0.0,0.0,0.0,0.0
1494526700936746851,65,1494526700842898553,gyro_link,0.0,0.0,0.0,1.0,1.79769313486e+308,0.0,0.0,0.0,1.79769313486e+308,0.0,0.0,0.0,0.05,0.0,0.0,0.0,1.79769313486e+308,0.0,0.0,0.0,1.79769313486e+308,0.0,0.0,0.0,0.05,0.0,0.0,0.0,0.0,0.0,0.0,0.0,0.0,0.0,0.0,0.0,0.0
1494526700937292613,66,1494526700860085137,gyro_link,0.0,0.0,0.0,1.0,1.79769313486e+308,0.0,0.0,0.0,1.79769313486e+308,0.0,0.0,0.0,0.05,0.0,0.0,0.0,1.79769313486e+308,0.0,0.0,0.0,1.79769313486e+308,0.0,0.0,0.0,0.05,0.0,0.0,0.0,0.0,0.0,0.0,0.0,0.0,0.0,0.0,0.0,0.0
1494526700937376821,67,1494526700880039825,gyro_link,0.0,0.0,0.0,1.0,1.79769313486e+308,0.0,0.0,0.0,1.79769313486e+308,0.0,0.0,0.0,0.05,0.0,0.0,0.0,1.79769313486e+308,0.0,0.0,0.0,1.79769313486e+308,0.0,0.0,0.0,0.05,0.0,0.0,0.0,0.0,0.0,0.0,0.0,0.0,0.0,0.0,0.0,0.0
1494526700937392342,68,1494526700900116971,gyro_link,0.0,0.0,0.0,1.0,1.79769313486e+308,0.0,0.0,0.0,1.79769313486e+308,0.0,0.0,0.0,0.05,0.0,0.0,0.0,1.79769313486e+308,0.0,0.0,0.0,1.79769313486e+308,0.0,0.0,0.0,0.05,0.0,0.0,0.0,0.0,0.0,0.0,0.0,0.0,0.0,0.0,0.0,0.0
1494526700937404985,69,1494526700919932327,gyro_link,0.0,0.0,0.0,1.0,1.79769313486e+308,0.0,0.0,0.0,1.79769313486e+308,0.0,0.0,0.0,0.05,0.0,0.0,0.0,1.79769313486e+308,0.0,0.0,0.0,1.79769313486e+308,0.0,0.0,0.0,0.05,0.0,0.0,0.0,0.0,0.0,0.0,0.0,0.0,0.0,0.0,0.0,0.0
1494526700937412142,70,1494526700939867765,gyro_link,0.0,0.0,0.0,1.0,1.79769313486e+308,0.0,0.0,0.0,1.79769313486e+308,0.0,0.0,0.0,0.05,0.0,0.0,0.0,1.79769313486e+308,0.0,0.0,0.0,1.79769313486e+308,0.0,0.0,0.0,0.05,0.0,0.0,0.0,0.0,0.0,0.0,0.0,0.0,0.0,0.0,0.0,0.0
1494526700937418622,71,1494526700960305700,gyro_link,0.0,0.0,0.0,1.0,1.79769313486e+308,0.0,0.0,0.0,1.79769313486e+308,0.0,0.0,0.0,0.05,0.0,0.0,0.0,1.79769313486e+308,0.0,0.0,0.0,1.79769313486e+308,0.0,0.0,0.0,0.05,0.0,0.0,0.0,0.0,0.0,0.0,0.0,0.0,0.0,0.0,0.0,0.0
1494526700937425277,72,1494526700980916134,gyro_link,0.0,0.0,0.0,1.0,1.79769313486e+308,0.0,0.0,0.0,1.79769313486e+308,0.0,0.0,0.0,0.05,0.0,0.0,0.0,1.79769313486e+308,0.0,0.0,0.0,1.79769313486e+308,0.0,0.0,0.0,0.05,0.0,0.0,0.0,0.0,0.0,0.0,0.0,0.0,0.0,0.0,0.0,0.0
1494526700937431637,73,1494526701001101154,gyro_link,0.0,0.0,0.0,1.0,1.79769313486e+308,0.0,0.0,0.0,1.79769313486e+308,0.0,0.0,0.0,0.05,0.0,0.0,0.0,1.79769313486e+308,0.0,0.0,0.0,1.79769313486e+308,0.0,0.0,0.0,0.05,0.0,0.0,0.0,0.0,0.0,0.0,0.0,0.0,0.0,0.0,0.0,0.0
1494526700937438292,74,1494526701020857260,gyro_link,0.0,0.0,0.0,1.0,1.79769313486e+308,0.0,0.0,0.0,1.79769313486e+308,0.0,0.0,0.0,0.05,0.0,0.0,0.0,1.79769313486e+308,0.0,0.0,0.0,1.79769313486e+308,0.0,0.0,0.0,0.05,0.0,0.0,0.0,0.0,0.0,0.0,0.0,0.0,0.0,0.0,0.0,0.0
1494526700937445700,75,1494526701040901614,gyro_link,0.0,0.0,0.0,1.0,1.79769313486e+308,0.0,0.0,0.0,1.79769313486e+308,0.0,0.0,0.0,0.05,0.0,0.0,0.0,1.79769313486e+308,0.0,0.0,0.0,1.79769313486e+308,0.0,0.0,0.0,0.05,0.0,0.0,0.0,0.0,0.0,0.0,0.0,0.0,0.0,0.0,0.0,0.0
1494526700937455852,76,1494526701062274959,gyro_link,0.0,0.0,0.0,1.0,1.79769313486e+308,0.0,0.0,0.0,1.79769313486e+308,0.0,0.0,0.0,0.05,0.0,0.0,0.0,1.79769313486e+308,0.0,0.0,0.0,1.79769313486e+308,0.0,0.0,0.0,0.05,0.0,0.0,0.0,0.0,0.0,0.0,0.0,0.0,0.0,0.0,0.0,0.0
1494526700937466413,77,1494526701079938539,gyro_link,0.0,0.0,0.0,1.0,1.79769313486e+308,0.0,0.0,0.0,1.79769313486e+308,0.0,0.0,0.0,0.05,0.0,0.0,0.0,1.79769313486e+308,0.0,0.0,0.0,1.79769313486e+308,0.0,0.0,0.0,0.05,0.0,0.0,0.0,0.0,0.0,0.0,0.0,0.0,0.0,0.0,0.0,0.0
1494526700937820522,78,1494526701100794929,gyro_link,0.0,0.0,0.0,1.0,1.79769313486e+308,0.0,0.0,0.0,1.79769313486e+308,0.0,0.0,0.0,0.05,0.0,0.0,0.0,1.79769313486e+308,0.0,0.0,0.0,1.79769313486e+308,0.0,0.0,0.0,0.05,0.0,0.0,0.0,0.0,0.0,0.0,0.0,0.0,0.0,0.0,0.0,0.0
1494526700937826929,79,1494526701120099455,gyro_link,0.0,0.0,0.0,1.0,1.79769313486e+308,0.0,0.0,0.0,1.79769313486e+308,0.0,0.0,0.0,0.05,0.0,0.0,0.0,1.79769313486e+308,0.0,0.0,0.0,1.79769313486e+308,0.0,0.0,0.0,0.05,0.0,0.0,0.0,0.0,0.0,0.0,0.0,0.0,0.0,0.0,0.0,0.0
1494526700937838991,80,1494526701140267851,gyro_link,0.0,0.0,0.0,1.0,1.79769313486e+308,0.0,0.0,0.0,1.79769313486e+308,0.0,0.0,0.0,0.05,0.0,0.0,0.0,1.79769313486e+308,0.0,0.0,0.0,1.79769313486e+308,0.0,0.0,0.0,0.05,0.0,0.0,0.0,0.0,0.0,0.0,0.0,0.0,0.0,0.0,0.0,0.0
1494526700937845135,81,1494526701160028749,gyro_link,0.0,0.0,0.0,1.0,1.79769313486e+308,0.0,0.0,0.0,1.79769313486e+308,0.0,0.0,0.0,0.05,0.0,0.0,0.0,1.79769313486e+308,0.0,0.0,0.0,1.79769313486e+308,0.0,0.0,0.0,0.05,0.0,0.0,0.0,0.0,0.0,0.0,0.0,0.0,0.0,0.0,0.0,0.0
1494526700938154681,82,1494526701180928430,gyro_link,0.0,0.0,0.0,1.0,1.79769313486e+308,0.0,0.0,0.0,1.79769313486e+308,0.0,0.0,0.0,0.05,0.0,0.0,0.0,1.79769313486e+308,0.0,0.0,0.0,1.79769313486e+308,0.0,0.0,0.0,0.05,0.0,0.0,0.0,0.0,0.0,0.0,0.0,0.0,0.0,0.0,0.0,0.0
1494526700938163747,83,1494526701200721453,gyro_link,0.0,0.0,0.0,1.0,1.79769313486e+308,0.0,0.0,0.0,1.79769313486e+308,0.0,0.0,0.0,0.05,0.0,0.0,0.0,1.79769313486e+308,0.0,0.0,0.0,1.79769313486e+308,0.0,0.0,0.0,0.05,0.0,0.0,0.0,0.0,0.0,0.0,0.0,0.0,0.0,0.0,0.0,0.0
1494526700938176502,84,1494526701220814807,gyro_link,0.0,0.0,0.0,1.0,1.79769313486e+308,0.0,0.0,0.0,1.79769313486e+308,0.0,0.0,0.0,0.05,0.0,0.0,0.0,1.79769313486e+308,0.0,0.0,0.0,1.79769313486e+308,0.0,0.0,0.0,0.05,0.0,0.0,0.0,0.0,0.0,0.0,0.0,0.0,0.0,0.0,0.0,0.0
1494526700938182371,85,1494526701240742745,gyro_link,0.0,0.0,0.0,1.0,1.79769313486e+308,0.0,0.0,0.0,1.79769313486e+308,0.0,0.0,0.0,0.05,0.0,0.0,0.0,1.79769313486e+308,0.0,0.0,0.0,1.79769313486e+308,0.0,0.0,0.0,0.05,0.0,0.0,0.0,0.0,0.0,0.0,0.0,0.0,0.0,0.0,0.0,0.0
1494526700938417256,86,1494526701263487289,gyro_link,0.0,0.0,0.0,1.0,1.79769313486e+308,0.0,0.0,0.0,1.79769313486e+308,0.0,0.0,0.0,0.05,0.0,0.0,0.0,1.79769313486e+308,0.0,0.0,0.0,1.79769313486e+308,0.0,0.0,0.0,0.05,0.0,0.0,0.0,0.0,0.0,0.0,0.0,0.0,0.0,0.0,0.0,0.0
1494526700938423597,87,1494526701281663406,gyro_link,0.0,0.0,0.0,1.0,1.79769313486e+308,0.0,0.0,0.0,1.79769313486e+308,0.0,0.0,0.0,0.05,0.0,0.0,0.0,1.79769313486e+308,0.0,0.0,0.0,1.79769313486e+308,0.0,0.0,0.0,0.05,0.0,0.0,0.0,0.0,0.0,0.0,0.0,0.0,0.0,0.0,0.0,0.0
1494526700938430540,88,1494526701300998224,gyro_link,0.0,0.0,0.0,1.0,1.79769313486e+308,0.0,0.0,0.0,1.79769313486e+308,0.0,0.0,0.0,0.05,0.0,0.0,0.0,1.79769313486e+308,0.0,0.0,0.0,1.79769313486e+308,0.0,0.0,0.0,0.05,0.0,0.0,0.0,0.0,0.0,0.0,0.0,0.0,0.0,0.0,0.0,0.0
1494526700938646653,89,1494526701320763206,gyro_link,0.0,0.0,0.0,1.0,1.79769313486e+308,0.0,0.0,0.0,1.79769313486e+308,0.0,0.0,0.0,0.05,0.0,0.0,0.0,1.79769313486e+308,0.0,0.0,0.0,1.79769313486e+308,0.0,0.0,0.0,0.05,0.0,0.0,0.0,0.0,0.0,0.0,0.0,0.0,0.0,0.0,0.0,0.0
1494526700938654088,90,1494526701340774977,gyro_link,0.0,0.0,0.0,1.0,1.79769313486e+308,0.0,0.0,0.0,1.79769313486e+308,0.0,0.0,0.0,0.05,0.0,0.0,0.0,1.79769313486e+308,0.0,0.0,0.0,1.79769313486e+308,0.0,0.0,0.0,0.05,0.0,0.0,0.0,0.0,0.0,0.0,0.0,0.0,0.0,0.0,0.0,0.0
1494526700938829643,91,1494526701360918205,gyro_link,0.0,0.0,0.0,1.0,1.79769313486e+308,0.0,0.0,0.0,1.79769313486e+308,0.0,0.0,0.0,0.05,0.0,0.0,0.0,1.79769313486e+308,0.0,0.0,0.0,1.79769313486e+308,0.0,0.0,0.0,0.05,0.0,0.0,0.0,0.0,0.0,0.0,0.0,0.0,0.0,0.0,0.0,0.0
1494526700938837228,92,1494526701381510598,gyro_link,0.0,0.0,0.0,1.0,1.79769313486e+308,0.0,0.0,0.0,1.79769313486e+308,0.0,0.0,0.0,0.05,0.0,0.0,0.0,1.79769313486e+308,0.0,0.0,0.0,1.79769313486e+308,0.0,0.0,0.0,0.05,0.0,0.0,0.0,0.0,0.0,0.0,0.0,0.0,0.0,0.0,0.0,0.0
1494526700938970662,93,1494526701403172440,gyro_link,0.0,0.0,0.0,1.0,1.79769313486e+308,0.0,0.0,0.0,1.79769313486e+308,0.0,0.0,0.0,0.05,0.0,0.0,0.0,1.79769313486e+308,0.0,0.0,0.0,1.79769313486e+308,0.0,0.0,0.0,0.05,0.0,0.0,0.0,0.0,0.0,0.0,0.0,0.0,0.0,0.0,0.0,0.0
1494526700939461075,94,1494526701420691979,gyro_link,0.0,0.0,0.0,1.0,1.79769313486e+308,0.0,0.0,0.0,1.79769313486e+308,0.0,0.0,0.0,0.05,0.0,0.0,0.0,1.79769313486e+308,0.0,0.0,0.0,1.79769313486e+308,0.0,0.0,0.0,0.05,0.0,0.0,0.0,0.0,0.0,0.0,0.0,0.0,0.0,0.0,0.0,0.0
1494526700951464555,95,1494526701441099914,gyro_link,0.0,0.0,0.0,1.0,1.79769313486e+308,0.0,0.0,0.0,1.79769313486e+308,0.0,0.0,0.0,0.05,0.0,0.0,0.0,1.79769313486e+308,0.0,0.0,0.0,1.79769313486e+308,0.0,0.0,0.0,0.05,0.0,0.0,0.0,0.0,0.0,0.0,0.0,0.0,0.0,0.0,0.0,0.0
1494526700973964263,96,1494526701460957479,gyro_link,0.0,0.0,0.0,1.0,1.79769313486e+308,0.0,0.0,0.0,1.79769313486e+308,0.0,0.0,0.0,0.05,0.0,0.0,0.0,1.79769313486e+308,0.0,0.0,0.0,1.79769313486e+308,0.0,0.0,0.0,0.05,0.0,0.0,0.0,0.0,0.0,0.0,0.0,0.0,0.0,0.0,0.0,0.0
1494526700990445402,97,1494526701480745251,gyro_link,0.0,0.0,0.0,1.0,1.79769313486e+308,0.0,0.0,0.0,1.79769313486e+308,0.0,0.0,0.0,0.05,0.0,0.0,0.0,1.79769313486e+308,0.0,0.0,0.0,1.79769313486e+308,0.0,0.0,0.0,0.05,0.0,0.0,0.0,0.0,0.0,0.0,0.0,0.0,0.0,0.0,0.0,0.0
1494526701015319032,98,1494526701503967958,gyro_link,0.0,0.0,0.0,1.0,1.79769313486e+308,0.0,0.0,0.0,1.79769313486e+308,0.0,0.0,0.0,0.05,0.0,0.0,0.0,1.79769313486e+308,0.0,0.0,0.0,1.79769313486e+308,0.0,0.0,0.0,0.05,0.0,0.0,0.0,0.0,0.0,0.0,0.0,0.0,0.0,0.0,0.0,0.0
1494526701031193840,99,1494526701520778919,gyro_link,0.0,0.0,0.0,1.0,1.79769313486e+308,0.0,0.0,0.0,1.79769313486e+308,0.0,0.0,0.0,0.05,0.0,0.0,0.0,1.79769313486e+308,0.0,0.0,0.0,1.79769313486e+308,0.0,0.0,0.0,0.05,0.0,0.0,0.0,0.0,0.0,0.0,0.0,0.0,0.0,0.0,0.0,0.0
1494526701051264622,100,1494526701541839141,gyro_link,0.0,0.0,0.0,1.0,1.79769313486e+308,0.0,0.0,0.0,1.79769313486e+308,0.0,0.0,0.0,0.05,0.0,0.0,0.0,1.79769313486e+308,0.0,0.0,0.0,1.79769313486e+308,0.0,0.0,0.0,0.05,0.0,0.0,0.0,0.0,0.0,0.0,0.0,0.0,0.0,0.0,0.0,0.0
1494526701071882247,101,1494526701562013411,gyro_link,0.0,0.0,0.0,1.0,1.79769313486e+308,0.0,0.0,0.0,1.79769313486e+308,0.0,0.0,0.0,0.05,0.0,0.0,0.0,1.79769313486e+308,0.0,0.0,0.0,1.79769313486e+308,0.0,0.0,0.0,0.05,0.0,0.0,0.0,0.0,0.0,0.0,0.0,0.0,0.0,0.0,0.0,0.0
1494526701092481430,102,1494526701580699067,gyro_link,0.0,0.0,0.0,1.0,1.79769313486e+308,0.0,0.0,0.0,1.79769313486e+308,0.0,0.0,0.0,0.05,0.0,0.0,0.0,1.79769313486e+308,0.0,0.0,0.0,1.79769313486e+308,0.0,0.0,0.0,0.05,0.0,0.0,0.0,0.0,0.0,0.0,0.0,0.0,0.0,0.0,0.0,0.0
1494526701111220410,103,1494526701600883545,gyro_link,0.0,0.0,0.0,1.0,1.79769313486e+308,0.0,0.0,0.0,1.79769313486e+308,0.0,0.0,0.0,0.05,0.0,0.0,0.0,1.79769313486e+308,0.0,0.0,0.0,1.79769313486e+308,0.0,0.0,0.0,0.05,0.0,0.0,0.0,0.0,0.0,0.0,0.0,0.0,0.0,0.0,0.0,0.0
1494526701248438822,104,1494526701622390680,gyro_link,0.0,0.0,0.0,1.0,1.79769313486e+308,0.0,0.0,0.0,1.79769313486e+308,0.0,0.0,0.0,0.05,0.0,0.0,0.0,1.79769313486e+308,0.0,0.0,0.0,1.79769313486e+308,0.0,0.0,0.0,0.05,0.0,0.0,0.0,0.0,0.0,0.0,0.0,0.0,0.0,0.0,0.0,0.0
1494526701248453696,105,1494526701640767922,gyro_link,0.0,0.0,0.0,1.0,1.79769313486e+308,0.0,0.0,0.0,1.79769313486e+308,0.0,0.0,0.0,0.05,0.0,0.0,0.0,1.79769313486e+308,0.0,0.0,0.0,1.79769313486e+308,0.0,0.0,0.0,0.05,0.0,0.0,0.0,0.0,0.0,0.0,0.0,0.0,0.0,0.0,0.0,0.0
1494526701248769854,106,1494526701660905901,gyro_link,0.0,0.0,0.0,1.0,1.79769313486e+308,0.0,0.0,0.0,1.79769313486e+308,0.0,0.0,0.0,0.05,0.0,0.0,0.0,1.79769313486e+308,0.0,0.0,0.0,1.79769313486e+308,0.0,0.0,0.0,0.05,0.0,0.0,0.0,0.0,0.0,0.0,0.0,0.0,0.0,0.0,0.0,0.0
1494526701248776423,107,1494526701681078962,gyro_link,0.0,0.0,0.0,1.0,1.79769313486e+308,0.0,0.0,0.0,1.79769313486e+308,0.0,0.0,0.0,0.05,0.0,0.0,0.0,1.79769313486e+308,0.0,0.0,0.0,1.79769313486e+308,0.0,0.0,0.0,0.05,0.0,0.0,0.0,0.0,0.0,0.0,0.0,0.0,0.0,0.0,0.0,0.0
1494526701248850774,108,1494526701700716111,gyro_link,0.0,0.0,0.0,1.0,1.79769313486e+308,0.0,0.0,0.0,1.79769313486e+308,0.0,0.0,0.0,0.05,0.0,0.0,0.0,1.79769313486e+308,0.0,0.0,0.0,1.79769313486e+308,0.0,0.0,0.0,0.05,0.0,0.0,0.0,0.0,0.0,0.0,0.0,0.0,0.0,0.0,0.0,0.0
1494526701250863096,109,1494526701722950700,gyro_link,0.0,0.0,0.0,1.0,1.79769313486e+308,0.0,0.0,0.0,1.79769313486e+308,0.0,0.0,0.0,0.05,0.0,0.0,0.0,1.79769313486e+308,0.0,0.0,0.0,1.79769313486e+308,0.0,0.0,0.0,0.05,0.0,0.0,0.0,0.0,0.0,0.0,0.0,0.0,0.0,0.0,0.0,0.0
1494526701256869575,110,1494526701744535418,gyro_link,0.0,0.0,0.0,1.0,1.79769313486e+308,0.0,0.0,0.0,1.79769313486e+308,0.0,0.0,0.0,0.05,0.0,0.0,0.0,1.79769313486e+308,0.0,0.0,0.0,1.79769313486e+308,0.0,0.0,0.0,0.05,0.0,0.0,0.0,0.0,0.0,0.0,0.0,0.0,0.0,0.0,0.0,0.0
1494526701271973707,111,1494526701761794042,gyro_link,0.0,0.0,0.0,1.0,1.79769313486e+308,0.0,0.0,0.0,1.79769313486e+308,0.0,0.0,0.0,0.05,0.0,0.0,0.0,1.79769313486e+308,0.0,0.0,0.0,1.79769313486e+308,0.0,0.0,0.0,0.05,0.0,0.0,0.0,0.0,0.0,0.0,0.0,0.0,0.0,0.0,0.0,0.0
1494526701399052861,112,1494526701780847904,gyro_link,0.0,0.0,0.0,1.0,1.79769313486e+308,0.0,0.0,0.0,1.79769313486e+308,0.0,0.0,0.0,0.05,0.0,0.0,0.0,1.79769313486e+308,0.0,0.0,0.0,1.79769313486e+308,0.0,0.0,0.0,0.05,0.0,0.0,0.0,0.0,0.0,0.0,0.0,0.0,0.0,0.0,0.0,0.0
1494526701399098852,113,1494526701800757968,gyro_link,0.0,0.0,0.0,1.0,1.79769313486e+308,0.0,0.0,0.0,1.79769313486e+308,0.0,0.0,0.0,0.05,0.0,0.0,0.0,1.79769313486e+308,0.0,0.0,0.0,1.79769313486e+308,0.0,0.0,0.0,0.05,0.0,0.0,0.0,0.0,0.0,0.0,0.0,0.0,0.0,0.0,0.0,0.0
1494526701399148041,114,1494526701820836280,gyro_link,0.0,0.0,0.0,1.0,1.79769313486e+308,0.0,0.0,0.0,1.79769313486e+308,0.0,0.0,0.0,0.05,0.0,0.0,0.0,1.79769313486e+308,0.0,0.0,0.0,1.79769313486e+308,0.0,0.0,0.0,0.05,0.0,0.0,0.0,0.0,0.0,0.0,0.0,0.0,0.0,0.0,0.0,0.0
1494526701399189965,115,1494526701841017175,gyro_link,0.0,0.0,0.0,1.0,1.79769313486e+308,0.0,0.0,0.0,1.79769313486e+308,0.0,0.0,0.0,0.05,0.0,0.0,0.0,1.79769313486e+308,0.0,0.0,0.0,1.79769313486e+308,0.0,0.0,0.0,0.05,0.0,0.0,0.0,0.0,0.0,0.0,0.0,0.0,0.0,0.0,0.0,0.0
1494526701399201482,116,1494526701860851239,gyro_link,0.0,0.0,0.0,1.0,1.79769313486e+308,0.0,0.0,0.0,1.79769313486e+308,0.0,0.0,0.0,0.05,0.0,0.0,0.0,1.79769313486e+308,0.0,0.0,0.0,1.79769313486e+308,0.0,0.0,0.0,0.05,0.0,0.0,0.0,0.0,0.0,0.0,0.0,0.0,0.0,0.0,0.0,0.0
1494526701403263056,117,1494526701880819344,gyro_link,0.0,0.0,0.0,1.0,1.79769313486e+308,0.0,0.0,0.0,1.79769313486e+308,0.0,0.0,0.0,0.05,0.0,0.0,0.0,1.79769313486e+308,0.0,0.0,0.0,1.79769313486e+308,0.0,0.0,0.0,0.05,0.0,0.0,0.0,0.0,0.0,0.0,0.0,0.0,0.0,0.0,0.0,0.0
1494526701412106738,118,1494526701900709658,gyro_link,0.0,0.0,0.0,1.0,1.79769313486e+308,0.0,0.0,0.0,1.79769313486e+308,0.0,0.0,0.0,0.05,0.0,0.0,0.0,1.79769313486e+308,0.0,0.0,0.0,1.79769313486e+308,0.0,0.0,0.0,0.05,0.0,0.0,0.0,0.0,0.0,0.0,0.0,0.0,0.0,0.0,0.0,0.0
1494526701432301294,119,1494526701920552764,gyro_link,0.0,0.0,0.0,1.0,1.79769313486e+308,0.0,0.0,0.0,1.79769313486e+308,0.0,0.0,0.0,0.05,0.0,0.0,0.0,1.79769313486e+308,0.0,0.0,0.0,1.79769313486e+308,0.0,0.0,0.0,0.05,0.0,0.0,0.0,0.0,0.0,0.0,0.0,0.0,0.0,0.0,0.0,0.0
1494526701455619878,120,1494526701942459521,gyro_link,0.0,0.0,0.0,1.0,1.79769313486e+308,0.0,0.0,0.0,1.79769313486e+308,0.0,0.0,0.0,0.05,0.0,0.0,0.0,1.79769313486e+308,0.0,0.0,0.0,1.79769313486e+308,0.0,0.0,0.0,0.05,0.0,0.0,0.0,0.0,0.0,0.0,0.0,0.0,0.0,0.0,0.0,0.0
1494526701473783274,121,1494526701962580375,gyro_link,0.0,0.0,0.0,1.0,1.79769313486e+308,0.0,0.0,0.0,1.79769313486e+308,0.0,0.0,0.0,0.05,0.0,0.0,0.0,1.79769313486e+308,0.0,0.0,0.0,1.79769313486e+308,0.0,0.0,0.0,0.05,0.0,0.0,0.0,0.0,0.0,0.0,0.0,0.0,0.0,0.0,0.0,0.0
1494526701492003848,122,1494526701981694778,gyro_link,0.0,0.0,0.0,1.0,1.79769313486e+308,0.0,0.0,0.0,1.79769313486e+308,0.0,0.0,0.0,0.05,0.0,0.0,0.0,1.79769313486e+308,0.0,0.0,0.0,1.79769313486e+308,0.0,0.0,0.0,0.05,0.0,0.0,0.0,0.0,0.0,0.0,0.0,0.0,0.0,0.0,0.0,0.0
1494526701511739180,123,1494526702001633841,gyro_link,0.0,0.0,0.0,1.0,1.79769313486e+308,0.0,0.0,0.0,1.79769313486e+308,0.0,0.0,0.0,0.05,0.0,0.0,0.0,1.79769313486e+308,0.0,0.0,0.0,1.79769313486e+308,0.0,0.0,0.0,0.05,0.0,0.0,0.0,0.0,0.0,0.0,0.0,0.0,0.0,0.0,0.0,0.0
1494526701533364209,124,1494526702021651237,gyro_link,0.0,0.0,0.0,1.0,1.79769313486e+308,0.0,0.0,0.0,1.79769313486e+308,0.0,0.0,0.0,0.05,0.0,0.0,0.0,1.79769313486e+308,0.0,0.0,0.0,1.79769313486e+308,0.0,0.0,0.0,0.05,0.0,0.0,0.0,0.0,0.0,0.0,0.0,0.0,0.0,0.0,0.0,0.0
1494526701551081552,125,1494526702040691016,gyro_link,0.0,0.0,0.0,1.0,1.79769313486e+308,0.0,0.0,0.0,1.79769313486e+308,0.0,0.0,0.0,0.05,0.0,0.0,0.0,1.79769313486e+308,0.0,0.0,0.0,1.79769313486e+308,0.0,0.0,0.0,0.05,0.0,0.0,0.0,0.0,0.0,0.0,0.0,0.0,0.0,0.0,0.0,0.0
1494526701576451281,126,1494526702060568746,gyro_link,0.0,0.0,0.0,1.0,1.79769313486e+308,0.0,0.0,0.0,1.79769313486e+308,0.0,0.0,0.0,0.05,0.0,0.0,0.0,1.79769313486e+308,0.0,0.0,0.0,1.79769313486e+308,0.0,0.0,0.0,0.05,0.0,0.0,0.0,0.0,0.0,0.0,0.0,0.0,0.0,0.0,0.0,0.0
1494526701592691453,127,1494526702080624809,gyro_link,0.0,0.0,0.0,1.0,1.79769313486e+308,0.0,0.0,0.0,1.79769313486e+308,0.0,0.0,0.0,0.05,0.0,0.0,0.0,1.79769313486e+308,0.0,0.0,0.0,1.79769313486e+308,0.0,0.0,0.0,0.05,0.0,0.0,0.0,0.0,0.0,0.0,0.0,0.0,0.0,0.0,0.0,0.0
1494526701611877664,128,1494526702100773537,gyro_link,0.0,0.0,0.0,1.0,1.79769313486e+308,0.0,0.0,0.0,1.79769313486e+308,0.0,0.0,0.0,0.05,0.0,0.0,0.0,1.79769313486e+308,0.0,0.0,0.0,1.79769313486e+308,0.0,0.0,0.0,0.05,0.0,0.0,0.0,0.0,0.0,0.0,0.0,0.0,0.0,0.0,0.0,0.0
1494526701631911861,129,1494526702121640886,gyro_link,0.0,0.0,0.0,1.0,1.79769313486e+308,0.0,0.0,0.0,1.79769313486e+308,0.0,0.0,0.0,0.05,0.0,0.0,0.0,1.79769313486e+308,0.0,0.0,0.0,1.79769313486e+308,0.0,0.0,0.0,0.05,0.0,0.0,0.0,0.0,0.0,0.0,0.0,0.0,0.0,0.0,0.0,0.0
1494526701652184890,130,1494526702141591074,gyro_link,0.0,0.0,0.0,1.0,1.79769313486e+308,0.0,0.0,0.0,1.79769313486e+308,0.0,0.0,0.0,0.05,0.0,0.0,0.0,1.79769313486e+308,0.0,0.0,0.0,1.79769313486e+308,0.0,0.0,0.0,0.05,0.0,0.0,0.0,0.0,0.0,0.0,0.0,0.0,0.0,0.0,0.0,0.0
1494526701679494567,131,1494526702166212770,gyro_link,0.0,0.0,0.0,1.0,1.79769313486e+308,0.0,0.0,0.0,1.79769313486e+308,0.0,0.0,0.0,0.05,0.0,0.0,0.0,1.79769313486e+308,0.0,0.0,0.0,1.79769313486e+308,0.0,0.0,0.0,0.05,0.0,0.0,0.0,0.0,0.0,0.0,0.0,0.0,0.0,0.0,0.0,0.0
1494526701692608298,132,1494526702181868573,gyro_link,0.0,0.0,0.0,1.0,1.79769313486e+308,0.0,0.0,0.0,1.79769313486e+308,0.0,0.0,0.0,0.05,0.0,0.0,0.0,1.79769313486e+308,0.0,0.0,0.0,1.79769313486e+308,0.0,0.0,0.0,0.05,0.0,0.0,0.0,0.0,0.0,0.0,0.0,0.0,0.0,0.0,0.0,0.0
1494526701712219785,133,1494526702201829178,gyro_link,0.0,0.0,0.0,1.0,1.79769313486e+308,0.0,0.0,0.0,1.79769313486e+308,0.0,0.0,0.0,0.05,0.0,0.0,0.0,1.79769313486e+308,0.0,0.0,0.0,1.79769313486e+308,0.0,0.0,0.0,0.05,0.0,0.0,0.0,0.0,0.0,0.0,0.0,0.0,0.0,0.0,0.0,0.0
1494526701733961565,134,1494526702221774200,gyro_link,0.0,0.0,0.0,1.0,1.79769313486e+308,0.0,0.0,0.0,1.79769313486e+308,0.0,0.0,0.0,0.05,0.0,0.0,0.0,1.79769313486e+308,0.0,0.0,0.0,1.79769313486e+308,0.0,0.0,0.0,0.05,0.0,0.0,0.0,0.0,0.0,0.0,0.0,0.0,0.0,0.0,0.0,0.0
1494526701752391234,135,1494526702241661930,gyro_link,0.0,0.0,0.0,1.0,1.79769313486e+308,0.0,0.0,0.0,1.79769313486e+308,0.0,0.0,0.0,0.05,0.0,0.0,0.0,1.79769313486e+308,0.0,0.0,0.0,1.79769313486e+308,0.0,0.0,0.0,0.05,0.0,0.0,0.0,0.0,0.0,0.0,0.0,0.0,0.0,0.0,0.0,0.0
1494526701771726972,136,1494526702261644452,gyro_link,0.0,0.0,0.0,1.0,1.79769313486e+308,0.0,0.0,0.0,1.79769313486e+308,0.0,0.0,0.0,0.05,0.0,0.0,0.0,1.79769313486e+308,0.0,0.0,0.0,1.79769313486e+308,0.0,0.0,0.0,0.05,0.0,0.0,0.0,0.0,0.0,0.0,0.0,0.0,0.0,0.0,0.0,0.0
1494526701792886045,137,1494526702282388384,gyro_link,0.0,0.0,0.0,1.0,1.79769313486e+308,0.0,0.0,0.0,1.79769313486e+308,0.0,0.0,0.0,0.05,0.0,0.0,0.0,1.79769313486e+308,0.0,0.0,0.0,1.79769313486e+308,0.0,0.0,0.0,0.05,0.0,0.0,0.0,0.0,0.0,0.0,0.0,0.0,0.0,0.0,0.0,0.0
1494526701812090048,138,1494526702301537370,gyro_link,0.0,0.0,0.0,1.0,1.79769313486e+308,0.0,0.0,0.0,1.79769313486e+308,0.0,0.0,0.0,0.05,0.0,0.0,0.0,1.79769313486e+308,0.0,0.0,0.0,1.79769313486e+308,0.0,0.0,0.0,0.05,0.0,0.0,0.0,0.0,0.0,0.0,0.0,0.0,0.0,0.0,0.0,0.0
1494526701831959556,139,1494526702322368052,gyro_link,0.0,0.0,0.0,1.0,1.79769313486e+308,0.0,0.0,0.0,1.79769313486e+308,0.0,0.0,0.0,0.05,0.0,0.0,0.0,1.79769313486e+308,0.0,0.0,0.0,1.79769313486e+308,0.0,0.0,0.0,0.05,0.0,0.0,0.0,0.0,0.0,0.0,0.0,0.0,0.0,0.0,0.0,0.0
1494526701851236595,140,1494526702341539955,gyro_link,0.0,0.0,0.0,1.0,1.79769313486e+308,0.0,0.0,0.0,1.79769313486e+308,0.0,0.0,0.0,0.05,0.0,0.0,0.0,1.79769313486e+308,0.0,0.0,0.0,1.79769313486e+308,0.0,0.0,0.0,0.05,0.0,0.0,0.0,0.0,0.0,0.0,0.0,0.0,0.0,0.0,0.0,0.0
1494526701872567365,141,1494526702361691141,gyro_link,0.0,0.0,0.0,1.0,1.79769313486e+308,0.0,0.0,0.0,1.79769313486e+308,0.0,0.0,0.0,0.05,0.0,0.0,0.0,1.79769313486e+308,0.0,0.0,0.0,1.79769313486e+308,0.0,0.0,0.0,0.05,0.0,0.0,0.0,0.0,0.0,0.0,0.0,0.0,0.0,0.0,0.0,0.0
1494526701895863301,142,1494526702383371901,gyro_link,0.0,0.0,0.0,1.0,1.79769313486e+308,0.0,0.0,0.0,1.79769313486e+308,0.0,0.0,0.0,0.05,0.0,0.0,0.0,1.79769313486e+308,0.0,0.0,0.0,1.79769313486e+308,0.0,0.0,0.0,0.05,0.0,0.0,0.0,0.0,0.0,0.0,0.0,0.0,0.0,0.0,0.0,0.0
1494526701911971645,143,1494526702402408596,gyro_link,0.0,0.0,0.0,1.0,1.79769313486e+308,0.0,0.0,0.0,1.79769313486e+308,0.0,0.0,0.0,0.05,0.0,0.0,0.0,1.79769313486e+308,0.0,0.0,0.0,1.79769313486e+308,0.0,0.0,0.0,0.05,0.0,0.0,0.0,0.0,0.0,0.0,0.0,0.0,0.0,0.0,0.0,0.0
1494526701931549853,144,1494526702421505207,gyro_link,0.0,0.0,0.0,1.0,1.79769313486e+308,0.0,0.0,0.0,1.79769313486e+308,0.0,0.0,0.0,0.05,0.0,0.0,0.0,1.79769313486e+308,0.0,0.0,0.0,1.79769313486e+308,0.0,0.0,0.0,0.05,0.0,0.0,0.0,0.0,0.0,0.0,0.0,0.0,0.0,0.0,0.0,0.0
1494526701951081139,145,1494526702441575436,gyro_link,0.0,0.0,0.0,1.0,1.79769313486e+308,0.0,0.0,0.0,1.79769313486e+308,0.0,0.0,0.0,0.05,0.0,0.0,0.0,1.79769313486e+308,0.0,0.0,0.0,1.79769313486e+308,0.0,0.0,0.0,0.05,0.0,0.0,0.0,0.0,0.0,0.0,0.0,0.0,0.0,0.0,0.0,0.0
1494526701971493512,146,1494526702461593249,gyro_link,0.0,0.0,0.0,1.0,1.79769313486e+308,0.0,0.0,0.0,1.79769313486e+308,0.0,0.0,0.0,0.05,0.0,0.0,0.0,1.79769313486e+308,0.0,0.0,0.0,1.79769313486e+308,0.0,0.0,0.0,0.05,0.0,0.0,0.0,0.0,0.0,0.0,0.0,0.0,0.0,0.0,0.0,0.0
1494526701994473304,147,1494526702481852685,gyro_link,0.0,0.0,0.0,1.0,1.79769313486e+308,0.0,0.0,0.0,1.79769313486e+308,0.0,0.0,0.0,0.05,0.0,0.0,0.0,1.79769313486e+308,0.0,0.0,0.0,1.79769313486e+308,0.0,0.0,0.0,0.05,0.0,0.0,0.0,0.0,0.0,0.0,0.0,0.0,0.0,0.0,0.0,0.0
1494526702028438696,148,1494526702504556187,gyro_link,0.0,0.0,0.0,1.0,1.79769313486e+308,0.0,0.0,0.0,1.79769313486e+308,0.0,0.0,0.0,0.05,0.0,0.0,0.0,1.79769313486e+308,0.0,0.0,0.0,1.79769313486e+308,0.0,0.0,0.0,0.05,0.0,0.0,0.0,0.0,0.0,0.0,0.0,0.0,0.0,0.0,0.0,0.0
1494526702048371603,149,1494526702522219725,gyro_link,0.0,0.0,0.0,1.0,1.79769313486e+308,0.0,0.0,0.0,1.79769313486e+308,0.0,0.0,0.0,0.05,0.0,0.0,0.0,1.79769313486e+308,0.0,0.0,0.0,1.79769313486e+308,0.0,0.0,0.0,0.05,0.0,0.0,0.0,0.0,0.0,0.0,0.0,0.0,0.0,0.0,0.0,0.0
1494526702052523226,150,1494526702541692083,gyro_link,0.0,0.0,0.0,1.0,1.79769313486e+308,0.0,0.0,0.0,1.79769313486e+308,0.0,0.0,0.0,0.05,0.0,0.0,0.0,1.79769313486e+308,0.0,0.0,0.0,1.79769313486e+308,0.0,0.0,0.0,0.05,0.0,0.0,0.0,0.0,0.0,0.0,0.0,0.0,0.0,0.0,0.0,0.0
1494526702073413806,151,1494526702561501773,gyro_link,0.0,0.0,0.0,1.0,1.79769313486e+308,0.0,0.0,0.0,1.79769313486e+308,0.0,0.0,0.0,0.05,0.0,0.0,0.0,1.79769313486e+308,0.0,0.0,0.0,1.79769313486e+308,0.0,0.0,0.0,0.05,0.0,0.0,0.0,0.0,0.0,0.0,0.0,0.0,0.0,0.0,0.0,0.0
1494526702092715946,152,1494526702583789861,gyro_link,0.0,0.0,0.0,1.0,1.79769313486e+308,0.0,0.0,0.0,1.79769313486e+308,0.0,0.0,0.0,0.05,0.0,0.0,0.0,1.79769313486e+308,0.0,0.0,0.0,1.79769313486e+308,0.0,0.0,0.0,0.05,0.0,0.0,0.0,0.0,0.0,0.0,0.0,0.0,0.0,0.0,0.0,0.0
1494526702112821717,153,1494526702602836972,gyro_link,0.0,0.0,0.0,1.0,1.79769313486e+308,0.0,0.0,0.0,1.79769313486e+308,0.0,0.0,0.0,0.05,0.0,0.0,0.0,1.79769313486e+308,0.0,0.0,0.0,1.79769313486e+308,0.0,0.0,0.0,0.05,0.0,0.0,0.0,0.0,0.0,0.0,0.0,0.0,0.0,0.0,0.0,0.0
1494526702134121122,154,1494526702622483663,gyro_link,0.0,0.0,0.0,1.0,1.79769313486e+308,0.0,0.0,0.0,1.79769313486e+308,0.0,0.0,0.0,0.05,0.0,0.0,0.0,1.79769313486e+308,0.0,0.0,0.0,1.79769313486e+308,0.0,0.0,0.0,0.05,0.0,0.0,0.0,0.0,0.0,0.0,0.0,0.0,0.0,0.0,0.0,0.0
1494526702152458221,155,1494526702641638732,gyro_link,0.0,0.0,0.0,1.0,1.79769313486e+308,0.0,0.0,0.0,1.79769313486e+308,0.0,0.0,0.0,0.05,0.0,0.0,0.0,1.79769313486e+308,0.0,0.0,0.0,1.79769313486e+308,0.0,0.0,0.0,0.05,0.0,0.0,0.0,0.0,0.0,0.0,0.0,0.0,0.0,0.0,0.0,0.0
1494526702172470189,156,1494526702661613004,gyro_link,0.0,0.0,0.0,1.0,1.79769313486e+308,0.0,0.0,0.0,1.79769313486e+308,0.0,0.0,0.0,0.05,0.0,0.0,0.0,1.79769313486e+308,0.0,0.0,0.0,1.79769313486e+308,0.0,0.0,0.0,0.05,0.0,0.0,0.0,0.0,0.0,0.0,0.0,0.0,0.0,0.0,0.0,0.0
1494526702191336942,157,1494526702681580942,gyro_link,0.0,0.0,0.0,1.0,1.79769313486e+308,0.0,0.0,0.0,1.79769313486e+308,0.0,0.0,0.0,0.05,0.0,0.0,0.0,1.79769313486e+308,0.0,0.0,0.0,1.79769313486e+308,0.0,0.0,0.0,0.05,0.0,0.0,0.0,0.0,0.0,0.0,0.0,0.0,0.0,0.0,0.0,0.0
1494526702213104970,158,1494526702702532540,gyro_link,0.0,0.0,0.0,1.0,1.79769313486e+308,0.0,0.0,0.0,1.79769313486e+308,0.0,0.0,0.0,0.05,0.0,0.0,0.0,1.79769313486e+308,0.0,0.0,0.0,1.79769313486e+308,0.0,0.0,0.0,0.05,0.0,0.0,0.0,0.0,0.0,0.0,0.0,0.0,0.0,0.0,0.0,0.0
1494526702236118084,159,1494526702722875058,gyro_link,0.0,0.0,0.0,1.0,1.79769313486e+308,0.0,0.0,0.0,1.79769313486e+308,0.0,0.0,0.0,0.05,0.0,0.0,0.0,1.79769313486e+308,0.0,0.0,0.0,1.79769313486e+308,0.0,0.0,0.0,0.05,0.0,0.0,0.0,0.0,0.0,0.0,0.0,0.0,0.0,0.0,0.0,0.0
1494526702259239648,160,1494526702743294952,gyro_link,0.0,0.0,0.0,1.0,1.79769313486e+308,0.0,0.0,0.0,1.79769313486e+308,0.0,0.0,0.0,0.05,0.0,0.0,0.0,1.79769313486e+308,0.0,0.0,0.0,1.79769313486e+308,0.0,0.0,0.0,0.05,0.0,0.0,0.0,0.0,0.0,0.0,0.0,0.0,0.0,0.0,0.0,0.0
1494526702272034681,161,1494526702762596436,gyro_link,0.0,0.0,0.0,1.0,1.79769313486e+308,0.0,0.0,0.0,1.79769313486e+308,0.0,0.0,0.0,0.05,0.0,0.0,0.0,1.79769313486e+308,0.0,0.0,0.0,1.79769313486e+308,0.0,0.0,0.0,0.05,0.0,0.0,0.0,0.0,0.0,0.0,0.0,0.0,0.0,0.0,0.0,0.0
1494526702296417273,162,1494526702782437292,gyro_link,0.0,0.0,0.0,1.0,1.79769313486e+308,0.0,0.0,0.0,1.79769313486e+308,0.0,0.0,0.0,0.05,0.0,0.0,0.0,1.79769313486e+308,0.0,0.0,0.0,1.79769313486e+308,0.0,0.0,0.0,0.05,0.0,0.0,0.0,0.0,0.0,0.0,0.0,0.0,0.0,0.0,0.0,0.0
1494526702312723279,163,1494526702801305238,gyro_link,0.0,0.0,0.0,1.0,1.79769313486e+308,0.0,0.0,0.0,1.79769313486e+308,0.0,0.0,0.0,0.05,0.0,0.0,0.0,1.79769313486e+308,0.0,0.0,0.0,1.79769313486e+308,0.0,0.0,0.0,0.05,0.0,0.0,0.0,0.0,0.0,0.0,0.0,0.0,0.0,0.0,0.0,0.0
1494526702334238310,164,1494526702821548758,gyro_link,0.0,0.0,0.0,1.0,1.79769313486e+308,0.0,0.0,0.0,1.79769313486e+308,0.0,0.0,0.0,0.05,0.0,0.0,0.0,1.79769313486e+308,0.0,0.0,0.0,1.79769313486e+308,0.0,0.0,0.0,0.05,0.0,0.0,0.0,0.0,0.0,0.0,0.0,0.0,0.0,0.0,0.0,0.0
1494526702353083110,165,1494526702841500530,gyro_link,0.0,0.0,0.0,1.0,1.79769313486e+308,0.0,0.0,0.0,1.79769313486e+308,0.0,0.0,0.0,0.05,0.0,0.0,0.0,1.79769313486e+308,0.0,0.0,0.0,1.79769313486e+308,0.0,0.0,0.0,0.05,0.0,0.0,0.0,0.0,0.0,0.0,0.0,0.0,0.0,0.0,0.0,0.0
1494526702379566540,166,1494526702863887117,gyro_link,0.0,0.0,0.0,1.0,1.79769313486e+308,0.0,0.0,0.0,1.79769313486e+308,0.0,0.0,0.0,0.05,0.0,0.0,0.0,1.79769313486e+308,0.0,0.0,0.0,1.79769313486e+308,0.0,0.0,0.0,0.05,0.0,0.0,0.0,0.0,0.0,0.0,0.0,0.0,0.0,0.0,0.0,0.0
1494526702503307151,167,1494526702882477815,gyro_link,0.0,0.0,0.0,1.0,1.79769313486e+308,0.0,0.0,0.0,1.79769313486e+308,0.0,0.0,0.0,0.05,0.0,0.0,0.0,1.79769313486e+308,0.0,0.0,0.0,1.79769313486e+308,0.0,0.0,0.0,0.05,0.0,0.0,0.0,0.0,0.0,0.0,0.0,0.0,0.0,0.0,0.0,0.0
1494526702503355703,168,1494526702902577753,gyro_link,0.0,0.0,0.0,1.0,1.79769313486e+308,0.0,0.0,0.0,1.79769313486e+308,0.0,0.0,0.0,0.05,0.0,0.0,0.0,1.79769313486e+308,0.0,0.0,0.0,1.79769313486e+308,0.0,0.0,0.0,0.05,0.0,0.0,0.0,0.0,0.0,0.0,0.0,0.0,0.0,0.0,0.0,0.0
1494526702503412047,169,1494526702922412192,gyro_link,0.0,0.0,0.0,1.0,1.79769313486e+308,0.0,0.0,0.0,1.79769313486e+308,0.0,0.0,0.0,0.05,0.0,0.0,0.0,1.79769313486e+308,0.0,0.0,0.0,1.79769313486e+308,0.0,0.0,0.0,0.05,0.0,0.0,0.0,0.0,0.0,0.0,0.0,0.0,0.0,0.0,0.0,0.0
1494526702503428004,170,1494526702942540795,gyro_link,0.0,0.0,0.0,1.0,1.79769313486e+308,0.0,0.0,0.0,1.79769313486e+308,0.0,0.0,0.0,0.05,0.0,0.0,0.0,1.79769313486e+308,0.0,0.0,0.0,1.79769313486e+308,0.0,0.0,0.0,0.05,0.0,0.0,0.0,0.0,0.0,0.0,0.0,0.0,0.0,0.0,0.0,0.0
1494526702503445057,171,1494526702962662399,gyro_link,0.0,0.0,0.0,1.0,1.79769313486e+308,0.0,0.0,0.0,1.79769313486e+308,0.0,0.0,0.0,0.05,0.0,0.0,0.0,1.79769313486e+308,0.0,0.0,0.0,1.79769313486e+308,0.0,0.0,0.0,0.05,0.0,0.0,0.0,0.0,0.0,0.0,0.0,0.0,0.0,0.0,0.0,0.0
1494526702503459898,172,1494526702981500637,gyro_link,0.0,0.0,0.0,1.0,1.79769313486e+308,0.0,0.0,0.0,1.79769313486e+308,0.0,0.0,0.0,0.05,0.0,0.0,0.0,1.79769313486e+308,0.0,0.0,0.0,1.79769313486e+308,0.0,0.0,0.0,0.05,0.0,0.0,0.0,0.0,0.0,0.0,0.0,0.0,0.0,0.0,0.0,0.0
1494526702511984800,173,1494526703001687991,gyro_link,0.0,0.0,0.0,1.0,1.79769313486e+308,0.0,0.0,0.0,1.79769313486e+308,0.0,0.0,0.0,0.05,0.0,0.0,0.0,1.79769313486e+308,0.0,0.0,0.0,1.79769313486e+308,0.0,0.0,0.0,0.05,0.0,0.0,0.0,0.0,0.0,0.0,0.0,0.0,0.0,0.0,0.0,0.0
1494526702531389575,174,1494526703021447139,gyro_link,0.0,0.0,0.0,1.0,1.79769313486e+308,0.0,0.0,0.0,1.79769313486e+308,0.0,0.0,0.0,0.05,0.0,0.0,0.0,1.79769313486e+308,0.0,0.0,0.0,1.79769313486e+308,0.0,0.0,0.0,0.05,0.0,0.0,0.0,0.0,0.0,0.0,0.0,0.0,0.0,0.0,0.0,0.0
1494526702550926506,175,1494526703041304119,gyro_link,0.0,0.0,0.0,1.0,1.79769313486e+308,0.0,0.0,0.0,1.79769313486e+308,0.0,0.0,0.0,0.05,0.0,0.0,0.0,1.79769313486e+308,0.0,0.0,0.0,1.79769313486e+308,0.0,0.0,0.0,0.05,0.0,0.0,0.0,0.0,0.0,0.0,0.0,0.0,0.0,0.0,0.0,0.0
1494526702574938248,176,1494526703062718547,gyro_link,0.0,0.0,0.0,1.0,1.79769313486e+308,0.0,0.0,0.0,1.79769313486e+308,0.0,0.0,0.0,0.05,0.0,0.0,0.0,1.79769313486e+308,0.0,0.0,0.0,1.79769313486e+308,0.0,0.0,0.0,0.05,0.0,0.0,0.0,0.0,0.0,0.0,0.0,0.0,0.0,0.0,0.0,0.0
1494526702600744931,177,1494526703082890026,gyro_link,0.0,0.0,0.0,1.0,1.79769313486e+308,0.0,0.0,0.0,1.79769313486e+308,0.0,0.0,0.0,0.05,0.0,0.0,0.0,1.79769313486e+308,0.0,0.0,0.0,1.79769313486e+308,0.0,0.0,0.0,0.05,0.0,0.0,0.0,0.0,0.0,0.0,0.0,0.0,0.0,0.0,0.0,0.0
1494526702612935225,178,1494526703102469967,gyro_link,0.0,0.0,0.0,1.0,1.79769313486e+308,0.0,0.0,0.0,1.79769313486e+308,0.0,0.0,0.0,0.05,0.0,0.0,0.0,1.79769313486e+308,0.0,0.0,0.0,1.79769313486e+308,0.0,0.0,0.0,0.05,0.0,0.0,0.0,0.0,0.0,0.0,0.0,0.0,0.0,0.0,0.0,0.0
1494526702743991421,179,1494526703122374822,gyro_link,0.0,0.0,0.0,1.0,1.79769313486e+308,0.0,0.0,0.0,1.79769313486e+308,0.0,0.0,0.0,0.05,0.0,0.0,0.0,1.79769313486e+308,0.0,0.0,0.0,1.79769313486e+308,0.0,0.0,0.0,0.05,0.0,0.0,0.0,0.0,0.0,0.0,0.0,0.0,0.0,0.0,0.0,0.0
1494526702744018687,180,1494526703142382427,gyro_link,0.0,0.0,0.0,1.0,1.79769313486e+308,0.0,0.0,0.0,1.79769313486e+308,0.0,0.0,0.0,0.05,0.0,0.0,0.0,1.79769313486e+308,0.0,0.0,0.0,1.79769313486e+308,0.0,0.0,0.0,0.05,0.0,0.0,0.0,0.0,0.0,0.0,0.0,0.0,0.0,0.0,0.0,0.0
1494526702744031824,181,1494526703162480614,gyro_link,0.0,0.0,0.0,1.0,1.79769313486e+308,0.0,0.0,0.0,1.79769313486e+308,0.0,0.0,0.0,0.05,0.0,0.0,0.0,1.79769313486e+308,0.0,0.0,0.0,1.79769313486e+308,0.0,0.0,0.0,0.05,0.0,0.0,0.0,0.0,0.0,0.0,0.0,0.0,0.0,0.0,0.0,0.0
1494526702744039240,182,1494526703182509552,gyro_link,0.0,0.0,0.0,1.0,1.79769313486e+308,0.0,0.0,0.0,1.79769313486e+308,0.0,0.0,0.0,0.05,0.0,0.0,0.0,1.79769313486e+308,0.0,0.0,0.0,1.79769313486e+308,0.0,0.0,0.0,0.05,0.0,0.0,0.0,0.0,0.0,0.0,0.0,0.0,0.0,0.0,0.0,0.0
1494526702744082047,183,1494526703202992278,gyro_link,0.0,0.0,0.0,1.0,1.79769313486e+308,0.0,0.0,0.0,1.79769313486e+308,0.0,0.0,0.0,0.05,0.0,0.0,0.0,1.79769313486e+308,0.0,0.0,0.0,1.79769313486e+308,0.0,0.0,0.0,0.05,0.0,0.0,0.0,0.0,0.0,0.0,0.0,0.0,0.0,0.0,0.0,0.0
1494526702745994112,184,1494526703223231381,gyro_link,0.0,0.0,0.0,1.0,1.79769313486e+308,0.0,0.0,0.0,1.79769313486e+308,0.0,0.0,0.0,0.05,0.0,0.0,0.0,1.79769313486e+308,0.0,0.0,0.0,1.79769313486e+308,0.0,0.0,0.0,0.05,0.0,0.0,0.0,0.0,0.0,0.0,0.0,0.0,0.0,0.0,0.0,0.0
1494526702755056645,185,1494526703243428651,gyro_link,0.0,0.0,0.0,1.0,1.79769313486e+308,0.0,0.0,0.0,1.79769313486e+308,0.0,0.0,0.0,0.05,0.0,0.0,0.0,1.79769313486e+308,0.0,0.0,0.0,1.79769313486e+308,0.0,0.0,0.0,0.05,0.0,0.0,0.0,0.0,0.0,0.0,0.0,0.0,0.0,0.0,0.0,0.0
1494526702778947292,186,1494526703263858252,gyro_link,0.0,0.0,0.0,1.0,1.79769313486e+308,0.0,0.0,0.0,1.79769313486e+308,0.0,0.0,0.0,0.05,0.0,0.0,0.0,1.79769313486e+308,0.0,0.0,0.0,1.79769313486e+308,0.0,0.0,0.0,0.05,0.0,0.0,0.0,0.0,0.0,0.0,0.0,0.0,0.0,0.0,0.0,0.0
1494526702802592583,187,1494526703283579942,gyro_link,0.0,0.0,0.0,1.0,1.79769313486e+308,0.0,0.0,0.0,1.79769313486e+308,0.0,0.0,0.0,0.05,0.0,0.0,0.0,1.79769313486e+308,0.0,0.0,0.0,1.79769313486e+308,0.0,0.0,0.0,0.05,0.0,0.0,0.0,0.0,0.0,0.0,0.0,0.0,0.0,0.0,0.0,0.0
1494526702826251539,188,1494526703304600789,gyro_link,0.0,0.0,0.0,1.0,1.79769313486e+308,0.0,0.0,0.0,1.79769313486e+308,0.0,0.0,0.0,0.05,0.0,0.0,0.0,1.79769313486e+308,0.0,0.0,0.0,1.79769313486e+308,0.0,0.0,0.0,0.05,0.0,0.0,0.0,0.0,0.0,0.0,0.0,0.0,0.0,0.0,0.0,0.0
1494526702832375553,189,1494526703322323702,gyro_link,0.0,0.0,0.0,1.0,1.79769313486e+308,0.0,0.0,0.0,1.79769313486e+308,0.0,0.0,0.0,0.05,0.0,0.0,0.0,1.79769313486e+308,0.0,0.0,0.0,1.79769313486e+308,0.0,0.0,0.0,0.05,0.0,0.0,0.0,0.0,0.0,0.0,0.0,0.0,0.0,0.0,0.0,0.0
1494526702852879383,190,1494526703342235849,gyro_link,0.0,0.0,0.0,1.0,1.79769313486e+308,0.0,0.0,0.0,1.79769313486e+308,0.0,0.0,0.0,0.05,0.0,0.0,0.0,1.79769313486e+308,0.0,0.0,0.0,1.79769313486e+308,0.0,0.0,0.0,0.05,0.0,0.0,0.0,0.0,0.0,0.0,0.0,0.0,0.0,0.0,0.0,0.0
1494526702873161553,191,1494526703362580868,gyro_link,0.0,0.0,0.0,1.0,1.79769313486e+308,0.0,0.0,0.0,1.79769313486e+308,0.0,0.0,0.0,0.05,0.0,0.0,0.0,1.79769313486e+308,0.0,0.0,0.0,1.79769313486e+308,0.0,0.0,0.0,0.05,0.0,0.0,0.0,0.0,0.0,0.0,0.0,0.0,0.0,0.0,0.0,0.0
1494526702894335999,192,1494526703382307683,gyro_link,0.0,0.0,0.0,1.0,1.79769313486e+308,0.0,0.0,0.0,1.79769313486e+308,0.0,0.0,0.0,0.05,0.0,0.0,0.0,1.79769313486e+308,0.0,0.0,0.0,1.79769313486e+308,0.0,0.0,0.0,0.05,0.0,0.0,0.0,0.0,0.0,0.0,0.0,0.0,0.0,0.0,0.0,0.0
1494526703206329495,193,1494526703404078483,gyro_link,0.0,0.0,0.0,1.0,1.79769313486e+308,0.0,0.0,0.0,1.79769313486e+308,0.0,0.0,0.0,0.05,0.0,0.0,0.0,1.79769313486e+308,0.0,0.0,0.0,1.79769313486e+308,0.0,0.0,0.0,0.05,0.0,0.0,0.0,0.0,0.0,0.0,0.0,0.0,0.0,0.0,0.0,0.0
1494526703206406009,194,1494526703423197094,gyro_link,0.0,0.0,0.0,1.0,1.79769313486e+308,0.0,0.0,0.0,1.79769313486e+308,0.0,0.0,0.0,0.05,0.0,0.0,0.0,1.79769313486e+308,0.0,0.0,0.0,1.79769313486e+308,0.0,0.0,0.0,0.05,0.0,0.0,0.0,0.0,0.0,0.0,0.0,0.0,0.0,0.0,0.0,0.0
1494526703206414875,195,1494526703444953895,gyro_link,0.0,0.0,0.0,1.0,1.79769313486e+308,0.0,0.0,0.0,1.79769313486e+308,0.0,0.0,0.0,0.05,0.0,0.0,0.0,1.79769313486e+308,0.0,0.0,0.0,1.79769313486e+308,0.0,0.0,0.0,0.05,0.0,0.0,0.0,0.0,0.0,0.0,0.0,0.0,0.0,0.0,0.0,0.0
1494526703206425128,196,1494526703463537593,gyro_link,0.0,0.0,0.0,1.0,1.79769313486e+308,0.0,0.0,0.0,1.79769313486e+308,0.0,0.0,0.0,0.05,0.0,0.0,0.0,1.79769313486e+308,0.0,0.0,0.0,1.79769313486e+308,0.0,0.0,0.0,0.05,0.0,0.0,0.0,0.0,0.0,0.0,0.0,0.0,0.0,0.0,0.0,0.0
1494526703206436873,197,1494526703483148367,gyro_link,0.0,0.0,0.0,1.0,1.79769313486e+308,0.0,0.0,0.0,1.79769313486e+308,0.0,0.0,0.0,0.05,0.0,0.0,0.0,1.79769313486e+308,0.0,0.0,0.0,1.79769313486e+308,0.0,0.0,0.0,0.05,0.0,0.0,0.0,0.0,0.0,0.0,0.0,0.0,0.0,0.0,0.0,0.0
1494526703206463780,198,1494526703502346103,gyro_link,0.0,0.0,0.0,1.0,1.79769313486e+308,0.0,0.0,0.0,1.79769313486e+308,0.0,0.0,0.0,0.05,0.0,0.0,0.0,1.79769313486e+308,0.0,0.0,0.0,1.79769313486e+308,0.0,0.0,0.0,0.05,0.0,0.0,0.0,0.0,0.0,0.0,0.0,0.0,0.0,0.0,0.0,0.0
1494526703206481160,199,1494526703522335749,gyro_link,0.0,0.0,0.0,1.0,1.79769313486e+308,0.0,0.0,0.0,1.79769313486e+308,0.0,0.0,0.0,0.05,0.0,0.0,0.0,1.79769313486e+308,0.0,0.0,0.0,1.79769313486e+308,0.0,0.0,0.0,0.05,0.0,0.0,0.0,0.0,0.0,0.0,0.0,0.0,0.0,0.0,0.0,0.0
1494526703206504920,200,1494526703542236979,gyro_link,0.0,0.0,0.0,1.0,1.79769313486e+308,0.0,0.0,0.0,1.79769313486e+308,0.0,0.0,0.0,0.05,0.0,0.0,0.0,1.79769313486e+308,0.0,0.0,0.0,1.79769313486e+308,0.0,0.0,0.0,0.05,0.0,0.0,0.0,0.0,0.0,0.0,0.0,0.0,0.0,0.0,0.0,0.0
1494526703206536308,201,1494526703562377000,gyro_link,0.0,0.0,0.0,1.0,1.79769313486e+308,0.0,0.0,0.0,1.79769313486e+308,0.0,0.0,0.0,0.05,0.0,0.0,0.0,1.79769313486e+308,0.0,0.0,0.0,1.79769313486e+308,0.0,0.0,0.0,0.05,0.0,0.0,0.0,0.0,0.0,0.0,0.0,0.0,0.0,0.0,0.0,0.0
1494526703206544083,202,1494526703583105307,gyro_link,0.0,0.0,0.0,1.0,1.79769313486e+308,0.0,0.0,0.0,1.79769313486e+308,0.0,0.0,0.0,0.05,0.0,0.0,0.0,1.79769313486e+308,0.0,0.0,0.0,1.79769313486e+308,0.0,0.0,0.0,0.05,0.0,0.0,0.0,0.0,0.0,0.0,0.0,0.0,0.0,0.0,0.0,0.0
1494526703206570695,203,1494526703603001829,gyro_link,0.0,0.0,0.0,1.0,1.79769313486e+308,0.0,0.0,0.0,1.79769313486e+308,0.0,0.0,0.0,0.05,0.0,0.0,0.0,1.79769313486e+308,0.0,0.0,0.0,1.79769313486e+308,0.0,0.0,0.0,0.05,0.0,0.0,0.0,0.0,0.0,0.0,0.0,0.0,0.0,0.0,0.0,0.0
1494526703206579026,204,1494526703623226182,gyro_link,0.0,0.0,0.0,1.0,1.79769313486e+308,0.0,0.0,0.0,1.79769313486e+308,0.0,0.0,0.0,0.05,0.0,0.0,0.0,1.79769313486e+308,0.0,0.0,0.0,1.79769313486e+308,0.0,0.0,0.0,0.05,0.0,0.0,0.0,0.0,0.0,0.0,0.0,0.0,0.0,0.0,0.0,0.0
1494526703206606878,205,1494526703643454577,gyro_link,0.0,0.0,0.0,1.0,1.79769313486e+308,0.0,0.0,0.0,1.79769313486e+308,0.0,0.0,0.0,0.05,0.0,0.0,0.0,1.79769313486e+308,0.0,0.0,0.0,1.79769313486e+308,0.0,0.0,0.0,0.05,0.0,0.0,0.0,0.0,0.0,0.0,0.0,0.0,0.0,0.0,0.0,0.0
1494526703206626043,206,1494526703663593181,gyro_link,0.0,0.0,0.0,1.0,1.79769313486e+308,0.0,0.0,0.0,1.79769313486e+308,0.0,0.0,0.0,0.05,0.0,0.0,0.0,1.79769313486e+308,0.0,0.0,0.0,1.79769313486e+308,0.0,0.0,0.0,0.05,0.0,0.0,0.0,0.0,0.0,0.0,0.0,0.0,0.0,0.0,0.0,0.0
1494526703299744948,207,1494526703682847291,gyro_link,0.0,0.0,0.0,1.0,1.79769313486e+308,0.0,0.0,0.0,1.79769313486e+308,0.0,0.0,0.0,0.05,0.0,0.0,0.0,1.79769313486e+308,0.0,0.0,0.0,1.79769313486e+308,0.0,0.0,0.0,0.05,0.0,0.0,0.0,0.0,0.0,0.0,0.0,0.0,0.0,0.0,0.0,0.0
1494526703299759526,208,1494526703703513599,gyro_link,0.0,0.0,0.0,1.0,1.79769313486e+308,0.0,0.0,0.0,1.79769313486e+308,0.0,0.0,0.0,0.05,0.0,0.0,0.0,1.79769313486e+308,0.0,0.0,0.0,1.79769313486e+308,0.0,0.0,0.0,0.05,0.0,0.0,0.0,0.0,0.0,0.0,0.0,0.0,0.0,0.0,0.0,0.0
1494526703299793991,209,1494526703724173616,gyro_link,0.0,0.0,0.0,1.0,1.79769313486e+308,0.0,0.0,0.0,1.79769313486e+308,0.0,0.0,0.0,0.05,0.0,0.0,0.0,1.79769313486e+308,0.0,0.0,0.0,1.79769313486e+308,0.0,0.0,0.0,0.05,0.0,0.0,0.0,0.0,0.0,0.0,0.0,0.0,0.0,0.0,0.0,0.0
1494526703299800497,210,1494526703742633565,gyro_link,0.0,0.0,0.0,1.0,1.79769313486e+308,0.0,0.0,0.0,1.79769313486e+308,0.0,0.0,0.0,0.05,0.0,0.0,0.0,1.79769313486e+308,0.0,0.0,0.0,1.79769313486e+308,0.0,0.0,0.0,0.05,0.0,0.0,0.0,0.0,0.0,0.0,0.0,0.0,0.0,0.0,0.0,0.0
1494526703299806820,211,1494526703762465421,gyro_link,0.0,0.0,0.0,1.0,1.79769313486e+308,0.0,0.0,0.0,1.79769313486e+308,0.0,0.0,0.0,0.05,0.0,0.0,0.0,1.79769313486e+308,0.0,0.0,0.0,1.79769313486e+308,0.0,0.0,0.0,0.05,0.0,0.0,0.0,0.0,0.0,0.0,0.0,0.0,0.0,0.0,0.0,0.0
1494526703305471905,212,1494526703782191111,gyro_link,0.0,0.0,0.0,1.0,1.79769313486e+308,0.0,0.0,0.0,1.79769313486e+308,0.0,0.0,0.0,0.05,0.0,0.0,0.0,1.79769313486e+308,0.0,0.0,0.0,1.79769313486e+308,0.0,0.0,0.0,0.05,0.0,0.0,0.0,0.0,0.0,0.0,0.0,0.0,0.0,0.0,0.0,0.0
1494526703315432653,213,1494526703802258048,gyro_link,0.0,0.0,0.0,1.0,1.79769313486e+308,0.0,0.0,0.0,1.79769313486e+308,0.0,0.0,0.0,0.05,0.0,0.0,0.0,1.79769313486e+308,0.0,0.0,0.0,1.79769313486e+308,0.0,0.0,0.0,0.05,0.0,0.0,0.0,0.0,0.0,0.0,0.0,0.0,0.0,0.0,0.0,0.0
1494526703333768547,214,1494526703823197271,gyro_link,0.0,0.0,0.0,1.0,1.79769313486e+308,0.0,0.0,0.0,1.79769313486e+308,0.0,0.0,0.0,0.05,0.0,0.0,0.0,1.79769313486e+308,0.0,0.0,0.0,1.79769313486e+308,0.0,0.0,0.0,0.05,0.0,0.0,0.0,0.0,0.0,0.0,0.0,0.0,0.0,0.0,0.0,0.0
1494526703355417230,215,1494526703843654289,gyro_link,0.0,0.0,0.0,1.0,1.79769313486e+308,0.0,0.0,0.0,1.79769313486e+308,0.0,0.0,0.0,0.05,0.0,0.0,0.0,1.79769313486e+308,0.0,0.0,0.0,1.79769313486e+308,0.0,0.0,0.0,0.05,0.0,0.0,0.0,0.0,0.0,0.0,0.0,0.0,0.0,0.0,0.0,0.0
1494526703374893237,216,1494526703863814101,gyro_link,0.0,0.0,0.0,1.0,1.79769313486e+308,0.0,0.0,0.0,1.79769313486e+308,0.0,0.0,0.0,0.05,0.0,0.0,0.0,1.79769313486e+308,0.0,0.0,0.0,1.79769313486e+308,0.0,0.0,0.0,0.05,0.0,0.0,0.0,0.0,0.0,0.0,0.0,0.0,0.0,0.0,0.0,0.0
1494526703395622157,217,1494526703883924205,gyro_link,0.0,0.0,0.0,1.0,1.79769313486e+308,0.0,0.0,0.0,1.79769313486e+308,0.0,0.0,0.0,0.05,0.0,0.0,0.0,1.79769313486e+308,0.0,0.0,0.0,1.79769313486e+308,0.0,0.0,0.0,0.05,0.0,0.0,0.0,0.0,0.0,0.0,0.0,0.0,0.0,0.0,0.0,0.0
1494526703418661307,218,1494526703903573229,gyro_link,0.0,0.0,0.0,1.0,1.79769313486e+308,0.0,0.0,0.0,1.79769313486e+308,0.0,0.0,0.0,0.05,0.0,0.0,0.0,1.79769313486e+308,0.0,0.0,0.0,1.79769313486e+308,0.0,0.0,0.0,0.05,0.0,0.0,0.0,0.0,0.0,0.0,0.0,0.0,0.0,0.0,0.0,0.0
1494526703550508107,219,1494526703922399092,gyro_link,0.0,0.0,0.0,1.0,1.79769313486e+308,0.0,0.0,0.0,1.79769313486e+308,0.0,0.0,0.0,0.05,0.0,0.0,0.0,1.79769313486e+308,0.0,0.0,0.0,1.79769313486e+308,0.0,0.0,0.0,0.05,0.0,0.0,0.0,0.0,0.0,0.0,0.0,0.0,0.0,0.0,0.0,0.0
1494526703550540582,220,1494526703942012366,gyro_link,0.0,0.0,0.0,1.0,1.79769313486e+308,0.0,0.0,0.0,1.79769313486e+308,0.0,0.0,0.0,0.05,0.0,0.0,0.0,1.79769313486e+308,0.0,0.0,0.0,1.79769313486e+308,0.0,0.0,0.0,0.05,0.0,0.0,0.0,0.0,0.0,0.0,0.0,0.0,0.0,0.0,0.0,0.0
1494526703550556092,221,1494526703962476342,gyro_link,0.0,0.0,0.0,1.0,1.79769313486e+308,0.0,0.0,0.0,1.79769313486e+308,0.0,0.0,0.0,0.05,0.0,0.0,0.0,1.79769313486e+308,0.0,0.0,0.0,1.79769313486e+308,0.0,0.0,0.0,0.05,0.0,0.0,0.0,0.0,0.0,0.0,0.0,0.0,0.0,0.0,0.0,0.0
1494526703550568281,222,1494526703982208074,gyro_link,0.0,0.0,0.0,1.0,1.79769313486e+308,0.0,0.0,0.0,1.79769313486e+308,0.0,0.0,0.0,0.05,0.0,0.0,0.0,1.79769313486e+308,0.0,0.0,0.0,1.79769313486e+308,0.0,0.0,0.0,0.05,0.0,0.0,0.0,0.0,0.0,0.0,0.0,0.0,0.0,0.0,0.0,0.0
1494526703550579732,223,1494526704003314670,gyro_link,0.0,0.0,0.0,1.0,1.79769313486e+308,0.0,0.0,0.0,1.79769313486e+308,0.0,0.0,0.0,0.05,0.0,0.0,0.0,1.79769313486e+308,0.0,0.0,0.0,1.79769313486e+308,0.0,0.0,0.0,0.05,0.0,0.0,0.0,0.0,0.0,0.0,0.0,0.0,0.0,0.0,0.0,0.0
1494526703554371388,224,1494526704023114110,gyro_link,0.0,0.0,0.0,1.0,1.79769313486e+308,0.0,0.0,0.0,1.79769313486e+308,0.0,0.0,0.0,0.05,0.0,0.0,0.0,1.79769313486e+308,0.0,0.0,0.0,1.79769313486e+308,0.0,0.0,0.0,0.05,0.0,0.0,0.0,0.0,0.0,0.0,0.0,0.0,0.0,0.0,0.0,0.0
1494526703554405566,225,1494526704043406337,gyro_link,0.0,0.0,0.0,1.0,1.79769313486e+308,0.0,0.0,0.0,1.79769313486e+308,0.0,0.0,0.0,0.05,0.0,0.0,0.0,1.79769313486e+308,0.0,0.0,0.0,1.79769313486e+308,0.0,0.0,0.0,0.05,0.0,0.0,0.0,0.0,0.0,0.0,0.0,0.0,0.0,0.0,0.0,0.0
1494526703578773008,226,1494526704064233228,gyro_link,0.0,0.0,0.0,1.0,1.79769313486e+308,0.0,0.0,0.0,1.79769313486e+308,0.0,0.0,0.0,0.05,0.0,0.0,0.0,1.79769313486e+308,0.0,0.0,0.0,1.79769313486e+308,0.0,0.0,0.0,0.05,0.0,0.0,0.0,0.0,0.0,0.0,0.0,0.0,0.0,0.0,0.0,0.0
1494526703594167907,227,1494526704083251506,gyro_link,0.0,0.0,0.0,1.0,1.79769313486e+308,0.0,0.0,0.0,1.79769313486e+308,0.0,0.0,0.0,0.05,0.0,0.0,0.0,1.79769313486e+308,0.0,0.0,0.0,1.79769313486e+308,0.0,0.0,0.0,0.05,0.0,0.0,0.0,0.0,0.0,0.0,0.0,0.0,0.0,0.0,0.0,0.0
1494526703717825787,228,1494526704103259486,gyro_link,0.0,0.0,0.0,1.0,1.79769313486e+308,0.0,0.0,0.0,1.79769313486e+308,0.0,0.0,0.0,0.05,0.0,0.0,0.0,1.79769313486e+308,0.0,0.0,0.0,1.79769313486e+308,0.0,0.0,0.0,0.05,0.0,0.0,0.0,0.0,0.0,0.0,0.0,0.0,0.0,0.0,0.0,0.0
1494526703717847915,229,1494526704123225174,gyro_link,0.0,0.0,0.0,1.0,1.79769313486e+308,0.0,0.0,0.0,1.79769313486e+308,0.0,0.0,0.0,0.05,0.0,0.0,0.0,1.79769313486e+308,0.0,0.0,0.0,1.79769313486e+308,0.0,0.0,0.0,0.05,0.0,0.0,0.0,0.0,0.0,0.0,0.0,0.0,0.0,0.0,0.0,0.0
1494526703717855882,230,1494526704143267195,gyro_link,0.0,0.0,0.0,1.0,1.79769313486e+308,0.0,0.0,0.0,1.79769313486e+308,0.0,0.0,0.0,0.05,0.0,0.0,0.0,1.79769313486e+308,0.0,0.0,0.0,1.79769313486e+308,0.0,0.0,0.0,0.05,0.0,0.0,0.0,0.0,0.0,0.0,0.0,0.0,0.0,0.0,0.0,0.0
1494526703717861069,231,1494526704163162050,gyro_link,0.0,0.0,0.0,1.0,1.79769313486e+308,0.0,0.0,0.0,1.79769313486e+308,0.0,0.0,0.0,0.05,0.0,0.0,0.0,1.79769313486e+308,0.0,0.0,0.0,1.79769313486e+308,0.0,0.0,0.0,0.05,0.0,0.0,0.0,0.0,0.0,0.0,0.0,0.0,0.0,0.0,0.0,0.0
1494526703717866745,232,1494526704183053114,gyro_link,0.0,0.0,0.0,1.0,1.79769313486e+308,0.0,0.0,0.0,1.79769313486e+308,0.0,0.0,0.0,0.05,0.0,0.0,0.0,1.79769313486e+308,0.0,0.0,0.0,1.79769313486e+308,0.0,0.0,0.0,0.05,0.0,0.0,0.0,0.0,0.0,0.0,0.0,0.0,0.0,0.0,0.0,0.0
1494526703725045737,233,1494526704204065462,gyro_link,0.0,0.0,0.0,1.0,1.79769313486e+308,0.0,0.0,0.0,1.79769313486e+308,0.0,0.0,0.0,0.05,0.0,0.0,0.0,1.79769313486e+308,0.0,0.0,0.0,1.79769313486e+308,0.0,0.0,0.0,0.05,0.0,0.0,0.0,0.0,0.0,0.0,0.0,0.0,0.0,0.0,0.0,0.0
1494526703734611939,234,1494526704223071407,gyro_link,0.0,0.0,0.0,1.0,1.79769313486e+308,0.0,0.0,0.0,1.79769313486e+308,0.0,0.0,0.0,0.05,0.0,0.0,0.0,1.79769313486e+308,0.0,0.0,0.0,1.79769313486e+308,0.0,0.0,0.0,0.05,0.0,0.0,0.0,0.0,0.0,0.0,0.0,0.0,0.0,0.0,0.0,0.0
1494526703754415677,235,1494526704243019720,gyro_link,0.0,0.0,0.0,1.0,1.79769313486e+308,0.0,0.0,0.0,1.79769313486e+308,0.0,0.0,0.0,0.05,0.0,0.0,0.0,1.79769313486e+308,0.0,0.0,0.0,1.79769313486e+308,0.0,0.0,0.0,0.05,0.0,0.0,0.0,0.0,0.0,0.0,0.0,0.0,0.0,0.0,0.0,0.0
1494526703778584208,236,1494526704263808652,gyro_link,0.0,0.0,0.0,1.0,1.79769313486e+308,0.0,0.0,0.0,1.79769313486e+308,0.0,0.0,0.0,0.05,0.0,0.0,0.0,1.79769313486e+308,0.0,0.0,0.0,1.79769313486e+308,0.0,0.0,0.0,0.05,0.0,0.0,0.0,0.0,0.0,0.0,0.0,0.0,0.0,0.0,0.0,0.0
1494526703799509499,237,1494526704283523926,gyro_link,0.0,0.0,0.0,1.0,1.79769313486e+308,0.0,0.0,0.0,1.79769313486e+308,0.0,0.0,0.0,0.05,0.0,0.0,0.0,1.79769313486e+308,0.0,0.0,0.0,1.79769313486e+308,0.0,0.0,0.0,0.05,0.0,0.0,0.0,0.0,0.0,0.0,0.0,0.0,0.0,0.0,0.0,0.0
1494526703929133586,238,1494526704303385948,gyro_link,0.0,0.0,0.0,1.0,1.79769313486e+308,0.0,0.0,0.0,1.79769313486e+308,0.0,0.0,0.0,0.05,0.0,0.0,0.0,1.79769313486e+308,0.0,0.0,0.0,1.79769313486e+308,0.0,0.0,0.0,0.05,0.0,0.0,0.0,0.0,0.0,0.0,0.0,0.0,0.0,0.0,0.0,0.0
1494526703929195072,239,1494526704323203513,gyro_link,0.0,0.0,0.0,1.0,1.79769313486e+308,0.0,0.0,0.0,1.79769313486e+308,0.0,0.0,0.0,0.05,0.0,0.0,0.0,1.79769313486e+308,0.0,0.0,0.0,1.79769313486e+308,0.0,0.0,0.0,0.05,0.0,0.0,0.0,0.0,0.0,0.0,0.0,0.0,0.0,0.0,0.0,0.0
1494526703929204647,240,1494526704342981577,gyro_link,0.0,0.0,0.0,1.0,1.79769313486e+308,0.0,0.0,0.0,1.79769313486e+308,0.0,0.0,0.0,0.05,0.0,0.0,0.0,1.79769313486e+308,0.0,0.0,0.0,1.79769313486e+308,0.0,0.0,0.0,0.05,0.0,0.0,0.0,0.0,0.0,0.0,0.0,0.0,0.0,0.0,0.0,0.0
1494526703929211439,241,1494526704363141764,gyro_link,0.0,0.0,0.0,1.0,1.79769313486e+308,0.0,0.0,0.0,1.79769313486e+308,0.0,0.0,0.0,0.05,0.0,0.0,0.0,1.79769313486e+308,0.0,0.0,0.0,1.79769313486e+308,0.0,0.0,0.0,0.05,0.0,0.0,0.0,0.0,0.0,0.0,0.0,0.0,0.0,0.0,0.0,0.0
1494526703929254595,242,1494526704383150994,gyro_link,0.0,0.0,0.0,1.0,1.79769313486e+308,0.0,0.0,0.0,1.79769313486e+308,0.0,0.0,0.0,0.05,0.0,0.0,0.0,1.79769313486e+308,0.0,0.0,0.0,1.79769313486e+308,0.0,0.0,0.0,0.05,0.0,0.0,0.0,0.0,0.0,0.0,0.0,0.0,0.0,0.0,0.0,0.0
1494526703938444415,243,1494526704404219382,gyro_link,0.0,0.0,0.0,1.0,1.79769313486e+308,0.0,0.0,0.0,1.79769313486e+308,0.0,0.0,0.0,0.05,0.0,0.0,0.0,1.79769313486e+308,0.0,0.0,0.0,1.79769313486e+308,0.0,0.0,0.0,0.05,0.0,0.0,0.0,0.0,0.0,0.0,0.0,0.0,0.0,0.0,0.0,0.0
1494526703938451032,244,1494526704423250994,gyro_link,0.0,0.0,0.0,1.0,1.79769313486e+308,0.0,0.0,0.0,1.79769313486e+308,0.0,0.0,0.0,0.05,0.0,0.0,0.0,1.79769313486e+308,0.0,0.0,0.0,1.79769313486e+308,0.0,0.0,0.0,0.05,0.0,0.0,0.0,0.0,0.0,0.0,0.0,0.0,0.0,0.0,0.0,0.0
1494526703955899193,245,1494526704443188641,gyro_link,0.0,0.0,0.0,1.0,1.79769313486e+308,0.0,0.0,0.0,1.79769313486e+308,0.0,0.0,0.0,0.05,0.0,0.0,0.0,1.79769313486e+308,0.0,0.0,0.0,1.79769313486e+308,0.0,0.0,0.0,0.05,0.0,0.0,0.0,0.0,0.0,0.0,0.0,0.0,0.0,0.0,0.0,0.0
1494526703975268245,246,1494526704462968580,gyro_link,0.0,0.0,0.0,1.0,1.79769313486e+308,0.0,0.0,0.0,1.79769313486e+308,0.0,0.0,0.0,0.05,0.0,0.0,0.0,1.79769313486e+308,0.0,0.0,0.0,1.79769313486e+308,0.0,0.0,0.0,0.05,0.0,0.0,0.0,0.0,0.0,0.0,0.0,0.0,0.0,0.0,0.0,0.0
1494526703995792036,247,1494526704483120684,gyro_link,0.0,0.0,0.0,1.0,1.79769313486e+308,0.0,0.0,0.0,1.79769313486e+308,0.0,0.0,0.0,0.05,0.0,0.0,0.0,1.79769313486e+308,0.0,0.0,0.0,1.79769313486e+308,0.0,0.0,0.0,0.05,0.0,0.0,0.0,0.0,0.0,0.0,0.0,0.0,0.0,0.0,0.0,0.0
1494526704015157617,248,1494526704503685243,gyro_link,0.0,0.0,0.0,1.0,1.79769313486e+308,0.0,0.0,0.0,1.79769313486e+308,0.0,0.0,0.0,0.05,0.0,0.0,0.0,1.79769313486e+308,0.0,0.0,0.0,1.79769313486e+308,0.0,0.0,0.0,0.05,0.0,0.0,0.0,0.0,0.0,0.0,0.0,0.0,0.0,0.0,0.0,0.0
1494526704035462899,249,1494526704523537057,gyro_link,0.0,0.0,0.0,1.0,1.79769313486e+308,0.0,0.0,0.0,1.79769313486e+308,0.0,0.0,0.0,0.05,0.0,0.0,0.0,1.79769313486e+308,0.0,0.0,0.0,1.79769313486e+308,0.0,0.0,0.0,0.05,0.0,0.0,0.0,0.0,0.0,0.0,0.0,0.0,0.0,0.0,0.0,0.0
1494526704163540318,250,1494526704543947825,gyro_link,0.0,0.0,0.0,1.0,1.79769313486e+308,0.0,0.0,0.0,1.79769313486e+308,0.0,0.0,0.0,0.05,0.0,0.0,0.0,1.79769313486e+308,0.0,0.0,0.0,1.79769313486e+308,0.0,0.0,0.0,0.05,0.0,0.0,0.0,0.0,0.0,0.0,0.0,0.0,0.0,0.0,0.0,0.0
1494526704163557258,251,1494526704563812306,gyro_link,0.0,0.0,0.0,1.0,1.79769313486e+308,0.0,0.0,0.0,1.79769313486e+308,0.0,0.0,0.0,0.05,0.0,0.0,0.0,1.79769313486e+308,0.0,0.0,0.0,1.79769313486e+308,0.0,0.0,0.0,0.05,0.0,0.0,0.0,0.0,0.0,0.0,0.0,0.0,0.0,0.0,0.0,0.0
1494526704163575842,252,1494526704584397239,gyro_link,0.0,0.0,0.0,1.0,1.79769313486e+308,0.0,0.0,0.0,1.79769313486e+308,0.0,0.0,0.0,0.05,0.0,0.0,0.0,1.79769313486e+308,0.0,0.0,0.0,1.79769313486e+308,0.0,0.0,0.0,0.05,0.0,0.0,0.0,0.0,0.0,0.0,0.0,0.0,0.0,0.0,0.0,0.0
1494526704163601110,253,1494526704603200686,gyro_link,0.0,0.0,0.0,1.0,1.79769313486e+308,0.0,0.0,0.0,1.79769313486e+308,0.0,0.0,0.0,0.05,0.0,0.0,0.0,1.79769313486e+308,0.0,0.0,0.0,1.79769313486e+308,0.0,0.0,0.0,0.05,0.0,0.0,0.0,0.0,0.0,0.0,0.0,0.0,0.0,0.0,0.0,0.0
1494526704163610186,254,1494526704624106284,gyro_link,0.0,0.0,0.0,1.0,1.79769313486e+308,0.0,0.0,0.0,1.79769313486e+308,0.0,0.0,0.0,0.05,0.0,0.0,0.0,1.79769313486e+308,0.0,0.0,0.0,1.79769313486e+308,0.0,0.0,0.0,0.05,0.0,0.0,0.0,0.0,0.0,0.0,0.0,0.0,0.0,0.0,0.0,0.0
1494526704165248494,255,1494526704643942348,gyro_link,0.0,0.0,0.0,1.0,1.79769313486e+308,0.0,0.0,0.0,1.79769313486e+308,0.0,0.0,0.0,0.05,0.0,0.0,0.0,1.79769313486e+308,0.0,0.0,0.0,1.79769313486e+308,0.0,0.0,0.0,0.05,0.0,0.0,0.0,0.0,0.0,0.0,0.0,0.0,0.0,0.0,0.0,0.0
1494526704174878840,256,1494526704664025161,gyro_link,0.0,0.0,0.0,1.0,1.79769313486e+308,0.0,0.0,0.0,1.79769313486e+308,0.0,0.0,0.0,0.05,0.0,0.0,0.0,1.79769313486e+308,0.0,0.0,0.0,1.79769313486e+308,0.0,0.0,0.0,0.05,0.0,0.0,0.0,0.0,0.0,0.0,0.0,0.0,0.0,0.0,0.0,0.0
1494526704192999895,257,1494526704682948857,gyro_link,0.0,0.0,0.0,1.0,1.79769313486e+308,0.0,0.0,0.0,1.79769313486e+308,0.0,0.0,0.0,0.05,0.0,0.0,0.0,1.79769313486e+308,0.0,0.0,0.0,1.79769313486e+308,0.0,0.0,0.0,0.05,0.0,0.0,0.0,0.0,0.0,0.0,0.0,0.0,0.0,0.0,0.0,0.0
1494526704222784356,258,1494526704706016689,gyro_link,0.0,0.0,0.0,1.0,1.79769313486e+308,0.0,0.0,0.0,1.79769313486e+308,0.0,0.0,0.0,0.05,0.0,0.0,0.0,1.79769313486e+308,0.0,0.0,0.0,1.79769313486e+308,0.0,0.0,0.0,0.05,0.0,0.0,0.0,0.0,0.0,0.0,0.0,0.0,0.0,0.0,0.0,0.0
1494526704237961295,259,1494526704722868192,gyro_link,0.0,0.0,0.0,1.0,1.79769313486e+308,0.0,0.0,0.0,1.79769313486e+308,0.0,0.0,0.0,0.05,0.0,0.0,0.0,1.79769313486e+308,0.0,0.0,0.0,1.79769313486e+308,0.0,0.0,0.0,0.05,0.0,0.0,0.0,0.0,0.0,0.0,0.0,0.0,0.0,0.0,0.0,0.0
1494526704254026967,260,1494526704743055170,gyro_link,0.0,0.0,0.0,1.0,1.79769313486e+308,0.0,0.0,0.0,1.79769313486e+308,0.0,0.0,0.0,0.05,0.0,0.0,0.0,1.79769313486e+308,0.0,0.0,0.0,1.79769313486e+308,0.0,0.0,0.0,0.05,0.0,0.0,0.0,0.0,0.0,0.0,0.0,0.0,0.0,0.0,0.0,0.0
1494526704274443173,261,1494526704763610687,gyro_link,0.0,0.0,0.0,1.0,1.79769313486e+308,0.0,0.0,0.0,1.79769313486e+308,0.0,0.0,0.0,0.05,0.0,0.0,0.0,1.79769313486e+308,0.0,0.0,0.0,1.79769313486e+308,0.0,0.0,0.0,0.05,0.0,0.0,0.0,0.0,0.0,0.0,0.0,0.0,0.0,0.0,0.0,0.0
1494526704295575989,262,1494526704784523660,gyro_link,0.0,0.0,0.0,1.0,1.79769313486e+308,0.0,0.0,0.0,1.79769313486e+308,0.0,0.0,0.0,0.05,0.0,0.0,0.0,1.79769313486e+308,0.0,0.0,0.0,1.79769313486e+308,0.0,0.0,0.0,0.05,0.0,0.0,0.0,0.0,0.0,0.0,0.0,0.0,0.0,0.0,0.0,0.0
1494526704315697520,263,1494526704804070643,gyro_link,0.0,0.0,0.0,1.0,1.79769313486e+308,0.0,0.0,0.0,1.79769313486e+308,0.0,0.0,0.0,0.05,0.0,0.0,0.0,1.79769313486e+308,0.0,0.0,0.0,1.79769313486e+308,0.0,0.0,0.0,0.05,0.0,0.0,0.0,0.0,0.0,0.0,0.0,0.0,0.0,0.0,0.0,0.0
1494526704339396260,264,1494526704824068539,gyro_link,0.0,0.0,0.0,1.0,1.79769313486e+308,0.0,0.0,0.0,1.79769313486e+308,0.0,0.0,0.0,0.05,0.0,0.0,0.0,1.79769313486e+308,0.0,0.0,0.0,1.79769313486e+308,0.0,0.0,0.0,0.05,0.0,0.0,0.0,0.0,0.0,0.0,0.0,0.0,0.0,0.0,0.0,0.0
1494526704354388506,265,1494526704844370350,gyro_link,0.0,0.0,0.0,1.0,1.79769313486e+308,0.0,0.0,0.0,1.79769313486e+308,0.0,0.0,0.0,0.05,0.0,0.0,0.0,1.79769313486e+308,0.0,0.0,0.0,1.79769313486e+308,0.0,0.0,0.0,0.05,0.0,0.0,0.0,0.0,0.0,0.0,0.0,0.0,0.0,0.0,0.0,0.0
1494526704374276888,266,1494526704863986333,gyro_link,0.0,0.0,0.0,1.0,1.79769313486e+308,0.0,0.0,0.0,1.79769313486e+308,0.0,0.0,0.0,0.05,0.0,0.0,0.0,1.79769313486e+308,0.0,0.0,0.0,1.79769313486e+308,0.0,0.0,0.0,0.05,0.0,0.0,0.0,0.0,0.0,0.0,0.0,0.0,0.0,0.0,0.0,0.0
1494526704393856419,267,1494526704883053611,gyro_link,0.0,0.0,0.0,1.0,1.79769313486e+308,0.0,0.0,0.0,1.79769313486e+308,0.0,0.0,0.0,0.05,0.0,0.0,0.0,1.79769313486e+308,0.0,0.0,0.0,1.79769313486e+308,0.0,0.0,0.0,0.05,0.0,0.0,0.0,0.0,0.0,0.0,0.0,0.0,0.0,0.0,0.0,0.0
1494526704415617678,268,1494526704903984292,gyro_link,0.0,0.0,0.0,1.0,1.79769313486e+308,0.0,0.0,0.0,1.79769313486e+308,0.0,0.0,0.0,0.05,0.0,0.0,0.0,1.79769313486e+308,0.0,0.0,0.0,1.79769313486e+308,0.0,0.0,0.0,0.05,0.0,0.0,0.0,0.0,0.0,0.0,0.0,0.0,0.0,0.0,0.0,0.0
1494526704435163833,269,1494526704923960397,gyro_link,0.0,0.0,0.0,1.0,1.79769313486e+308,0.0,0.0,0.0,1.79769313486e+308,0.0,0.0,0.0,0.05,0.0,0.0,0.0,1.79769313486e+308,0.0,0.0,0.0,1.79769313486e+308,0.0,0.0,0.0,0.05,0.0,0.0,0.0,0.0,0.0,0.0,0.0,0.0,0.0,0.0,0.0,0.0
1494526704459021003,270,1494526704944778371,gyro_link,0.0,0.0,0.0,1.0,1.79769313486e+308,0.0,0.0,0.0,1.79769313486e+308,0.0,0.0,0.0,0.05,0.0,0.0,0.0,1.79769313486e+308,0.0,0.0,0.0,1.79769313486e+308,0.0,0.0,0.0,0.05,0.0,0.0,0.0,0.0,0.0,0.0,0.0,0.0,0.0,0.0,0.0,0.0
1494526704476733638,271,1494526704965722468,gyro_link,0.0,0.0,0.0,1.0,1.79769313486e+308,0.0,0.0,0.0,1.79769313486e+308,0.0,0.0,0.0,0.05,0.0,0.0,0.0,1.79769313486e+308,0.0,0.0,0.0,1.79769313486e+308,0.0,0.0,0.0,0.05,0.0,0.0,0.0,0.0,0.0,0.0,0.0,0.0,0.0,0.0,0.0,0.0
1494526704494758995,272,1494526704983999419,gyro_link,0.0,0.0,0.0,1.0,1.79769313486e+308,0.0,0.0,0.0,1.79769313486e+308,0.0,0.0,0.0,0.05,0.0,0.0,0.0,1.79769313486e+308,0.0,0.0,0.0,1.79769313486e+308,0.0,0.0,0.0,0.05,0.0,0.0,0.0,0.0,0.0,0.0,0.0,0.0,0.0,0.0,0.0,0.0
1494526704514057348,273,1494526705003834525,gyro_link,0.0,0.0,0.0,1.0,1.79769313486e+308,0.0,0.0,0.0,1.79769313486e+308,0.0,0.0,0.0,0.05,0.0,0.0,0.0,1.79769313486e+308,0.0,0.0,0.0,1.79769313486e+308,0.0,0.0,0.0,0.05,0.0,0.0,0.0,0.0,0.0,0.0,0.0,0.0,0.0,0.0,0.0,0.0
1494526704534131595,274,1494526705024122336,gyro_link,0.0,0.0,0.0,1.0,1.79769313486e+308,0.0,0.0,0.0,1.79769313486e+308,0.0,0.0,0.0,0.05,0.0,0.0,0.0,1.79769313486e+308,0.0,0.0,0.0,1.79769313486e+308,0.0,0.0,0.0,0.05,0.0,0.0,0.0,0.0,0.0,0.0,0.0,0.0,0.0,0.0,0.0,0.0
1494526704554017383,275,1494526705043972775,gyro_link,0.0,0.0,0.0,1.0,1.79769313486e+308,0.0,0.0,0.0,1.79769313486e+308,0.0,0.0,0.0,0.05,0.0,0.0,0.0,1.79769313486e+308,0.0,0.0,0.0,1.79769313486e+308,0.0,0.0,0.0,0.05,0.0,0.0,0.0,0.0,0.0,0.0,0.0,0.0,0.0,0.0,0.0,0.0
1494526704584782902,276,1494526705063854422,gyro_link,0.0,0.0,0.0,1.0,1.79769313486e+308,0.0,0.0,0.0,1.79769313486e+308,0.0,0.0,0.0,0.05,0.0,0.0,0.0,1.79769313486e+308,0.0,0.0,0.0,1.79769313486e+308,0.0,0.0,0.0,0.05,0.0,0.0,0.0,0.0,0.0,0.0,0.0,0.0,0.0,0.0,0.0,0.0
1494526704608413165,277,1494526705090671852,gyro_link,0.0,0.0,0.0,1.0,1.79769313486e+308,0.0,0.0,0.0,1.79769313486e+308,0.0,0.0,0.0,0.05,0.0,0.0,0.0,1.79769313486e+308,0.0,0.0,0.0,1.79769313486e+308,0.0,0.0,0.0,0.05,0.0,0.0,0.0,0.0,0.0,0.0,0.0,0.0,0.0,0.0,0.0,0.0
1494526704616444042,278,1494526705104384627,gyro_link,0.0,0.0,0.0,1.0,1.79769313486e+308,0.0,0.0,0.0,1.79769313486e+308,0.0,0.0,0.0,0.05,0.0,0.0,0.0,1.79769313486e+308,0.0,0.0,0.0,1.79769313486e+308,0.0,0.0,0.0,0.05,0.0,0.0,0.0,0.0,0.0,0.0,0.0,0.0,0.0,0.0,0.0,0.0
1494526704638185262,279,1494526705125909304,gyro_link,0.0,0.0,0.0,1.0,1.79769313486e+308,0.0,0.0,0.0,1.79769313486e+308,0.0,0.0,0.0,0.05,0.0,0.0,0.0,1.79769313486e+308,0.0,0.0,0.0,1.79769313486e+308,0.0,0.0,0.0,0.05,0.0,0.0,0.0,0.0,0.0,0.0,0.0,0.0,0.0,0.0,0.0,0.0
1494526704655731285,280,1494526705144567085,gyro_link,0.0,0.0,0.0,1.0,1.79769313486e+308,0.0,0.0,0.0,1.79769313486e+308,0.0,0.0,0.0,0.05,0.0,0.0,0.0,1.79769313486e+308,0.0,0.0,0.0,1.79769313486e+308,0.0,0.0,0.0,0.05,0.0,0.0,0.0,0.0,0.0,0.0,0.0,0.0,0.0,0.0,0.0,0.0
1494526704677744482,281,1494526705165695765,gyro_link,0.0,0.0,0.0,1.0,1.79769313486e+308,0.0,0.0,0.0,1.79769313486e+308,0.0,0.0,0.0,0.05,0.0,0.0,0.0,1.79769313486e+308,0.0,0.0,0.0,1.79769313486e+308,0.0,0.0,0.0,0.05,0.0,0.0,0.0,0.0,0.0,0.0,0.0,0.0,0.0,0.0,0.0,0.0
1494526704697639640,282,1494526705184004716,gyro_link,0.0,0.0,0.0,1.0,1.79769313486e+308,0.0,0.0,0.0,1.79769313486e+308,0.0,0.0,0.0,0.05,0.0,0.0,0.0,1.79769313486e+308,0.0,0.0,0.0,1.79769313486e+308,0.0,0.0,0.0,0.05,0.0,0.0,0.0,0.0,0.0,0.0,0.0,0.0,0.0,0.0,0.0,0.0
1494526704714420225,283,1494526705204326901,gyro_link,0.0,0.0,0.0,1.0,1.79769313486e+308,0.0,0.0,0.0,1.79769313486e+308,0.0,0.0,0.0,0.05,0.0,0.0,0.0,1.79769313486e+308,0.0,0.0,0.0,1.79769313486e+308,0.0,0.0,0.0,0.05,0.0,0.0,0.0,0.0,0.0,0.0,0.0,0.0,0.0,0.0,0.0,0.0
1494526704733354322,284,1494526705223753552,gyro_link,0.0,0.0,0.0,1.0,1.79769313486e+308,0.0,0.0,0.0,1.79769313486e+308,0.0,0.0,0.0,0.05,0.0,0.0,0.0,1.79769313486e+308,0.0,0.0,0.0,1.79769313486e+308,0.0,0.0,0.0,0.05,0.0,0.0,0.0,0.0,0.0,0.0,0.0,0.0,0.0,0.0,0.0,0.0
1494526704753884526,285,1494526705244083654,gyro_link,0.0,0.0,0.0,1.0,1.79769313486e+308,0.0,0.0,0.0,1.79769313486e+308,0.0,0.0,0.0,0.05,0.0,0.0,0.0,1.79769313486e+308,0.0,0.0,0.0,1.79769313486e+308,0.0,0.0,0.0,0.05,0.0,0.0,0.0,0.0,0.0,0.0,0.0,0.0,0.0,0.0,0.0,0.0
1494526704779484753,286,1494526705265323958,gyro_link,0.0,0.0,0.0,1.0,1.79769313486e+308,0.0,0.0,0.0,1.79769313486e+308,0.0,0.0,0.0,0.05,0.0,0.0,0.0,1.79769313486e+308,0.0,0.0,0.0,1.79769313486e+308,0.0,0.0,0.0,0.05,0.0,0.0,0.0,0.0,0.0,0.0,0.0,0.0,0.0,0.0,0.0,0.0
1494526704797202228,287,1494526705284884066,gyro_link,0.0,0.0,0.0,1.0,1.79769313486e+308,0.0,0.0,0.0,1.79769313486e+308,0.0,0.0,0.0,0.05,0.0,0.0,0.0,1.79769313486e+308,0.0,0.0,0.0,1.79769313486e+308,0.0,0.0,0.0,0.05,0.0,0.0,0.0,0.0,0.0,0.0,0.0,0.0,0.0,0.0,0.0,0.0
1494526704814565337,288,1494526705303713596,gyro_link,0.0,0.0,0.0,1.0,1.79769313486e+308,0.0,0.0,0.0,1.79769313486e+308,0.0,0.0,0.0,0.05,0.0,0.0,0.0,1.79769313486e+308,0.0,0.0,0.0,1.79769313486e+308,0.0,0.0,0.0,0.05,0.0,0.0,0.0,0.0,0.0,0.0,0.0,0.0,0.0,0.0,0.0,0.0
1494526704833764810,289,1494526705323829699,gyro_link,0.0,0.0,0.0,1.0,1.79769313486e+308,0.0,0.0,0.0,1.79769313486e+308,0.0,0.0,0.0,0.05,0.0,0.0,0.0,1.79769313486e+308,0.0,0.0,0.0,1.79769313486e+308,0.0,0.0,0.0,0.05,0.0,0.0,0.0,0.0,0.0,0.0,0.0,0.0,0.0,0.0,0.0,0.0
1494526704855798725,290,1494526705344789297,gyro_link,0.0,0.0,0.0,1.0,1.79769313486e+308,0.0,0.0,0.0,1.79769313486e+308,0.0,0.0,0.0,0.05,0.0,0.0,0.0,1.79769313486e+308,0.0,0.0,0.0,1.79769313486e+308,0.0,0.0,0.0,0.05,0.0,0.0,0.0,0.0,0.0,0.0,0.0,0.0,0.0,0.0,0.0,0.0
1494526704874113414,291,1494526705364034366,gyro_link,0.0,0.0,0.0,1.0,1.79769313486e+308,0.0,0.0,0.0,1.79769313486e+308,0.0,0.0,0.0,0.05,0.0,0.0,0.0,1.79769313486e+308,0.0,0.0,0.0,1.79769313486e+308,0.0,0.0,0.0,0.05,0.0,0.0,0.0,0.0,0.0,0.0,0.0,0.0,0.0,0.0,0.0,0.0
1494526704894288314,292,1494526705383797805,gyro_link,0.0,0.0,0.0,1.0,1.79769313486e+308,0.0,0.0,0.0,1.79769313486e+308,0.0,0.0,0.0,0.05,0.0,0.0,0.0,1.79769313486e+308,0.0,0.0,0.0,1.79769313486e+308,0.0,0.0,0.0,0.05,0.0,0.0,0.0,0.0,0.0,0.0,0.0,0.0,0.0,0.0,0.0,0.0
1494526704920898827,293,1494526705405841895,gyro_link,0.0,0.0,0.0,1.0,1.79769313486e+308,0.0,0.0,0.0,1.79769313486e+308,0.0,0.0,0.0,0.05,0.0,0.0,0.0,1.79769313486e+308,0.0,0.0,0.0,1.79769313486e+308,0.0,0.0,0.0,0.05,0.0,0.0,0.0,0.0,0.0,0.0,0.0,0.0,0.0,0.0,0.0,0.0
1494526704936464078,294,1494526705423886639,gyro_link,0.0,0.0,0.0,1.0,1.79769313486e+308,0.0,0.0,0.0,1.79769313486e+308,0.0,0.0,0.0,0.05,0.0,0.0,0.0,1.79769313486e+308,0.0,0.0,0.0,1.79769313486e+308,0.0,0.0,0.0,0.05,0.0,0.0,0.0,0.0,0.0,0.0,0.0,0.0,0.0,0.0,0.0,0.0
1494526704954411361,295,1494526705443627746,gyro_link,0.0,0.0,0.0,1.0,1.79769313486e+308,0.0,0.0,0.0,1.79769313486e+308,0.0,0.0,0.0,0.05,0.0,0.0,0.0,1.79769313486e+308,0.0,0.0,0.0,1.79769313486e+308,0.0,0.0,0.0,0.05,0.0,0.0,0.0,0.0,0.0,0.0,0.0,0.0,0.0,0.0,0.0,0.0
1494526704975527495,296,1494526705463687100,gyro_link,0.0,0.0,0.0,1.0,1.79769313486e+308,0.0,0.0,0.0,1.79769313486e+308,0.0,0.0,0.0,0.05,0.0,0.0,0.0,1.79769313486e+308,0.0,0.0,0.0,1.79769313486e+308,0.0,0.0,0.0,0.05,0.0,0.0,0.0,0.0,0.0,0.0,0.0,0.0,0.0,0.0,0.0,0.0
1494526705104784308,297,1494526705483816162,gyro_link,0.0,0.0,0.0,1.0,1.79769313486e+308,0.0,0.0,0.0,1.79769313486e+308,0.0,0.0,0.0,0.05,0.0,0.0,0.0,1.79769313486e+308,0.0,0.0,0.0,1.79769313486e+308,0.0,0.0,0.0,0.05,0.0,0.0,0.0,0.0,0.0,0.0,0.0,0.0,0.0,0.0,0.0,0.0
1494526705104806085,298,1494526705503735725,gyro_link,0.0,0.0,0.0,1.0,1.79769313486e+308,0.0,0.0,0.0,1.79769313486e+308,0.0,0.0,0.0,0.05,0.0,0.0,0.0,1.79769313486e+308,0.0,0.0,0.0,1.79769313486e+308,0.0,0.0,0.0,0.05,0.0,0.0,0.0,0.0,0.0,0.0,0.0,0.0,0.0,0.0,0.0,0.0
1494526705104816085,299,1494526705527443595,gyro_link,0.0,0.0,0.0,1.0,1.79769313486e+308,0.0,0.0,0.0,1.79769313486e+308,0.0,0.0,0.0,0.05,0.0,0.0,0.0,1.79769313486e+308,0.0,0.0,0.0,1.79769313486e+308,0.0,0.0,0.0,0.05,0.0,0.0,0.0,0.0,0.0,0.0,0.0,0.0,0.0,0.0,0.0,0.0
1494526705104830914,300,1494526705545585046,gyro_link,0.0,0.0,0.0,1.0,1.79769313486e+308,0.0,0.0,0.0,1.79769313486e+308,0.0,0.0,0.0,0.05,0.0,0.0,0.0,1.79769313486e+308,0.0,0.0,0.0,1.79769313486e+308,0.0,0.0,0.0,0.05,0.0,0.0,0.0,0.0,0.0,0.0,0.0,0.0,0.0,0.0,0.0,0.0
1494526705104845493,301,1494526705564943614,gyro_link,0.0,0.0,0.0,1.0,1.79769313486e+308,0.0,0.0,0.0,1.79769313486e+308,0.0,0.0,0.0,0.05,0.0,0.0,0.0,1.79769313486e+308,0.0,0.0,0.0,1.79769313486e+308,0.0,0.0,0.0,0.05,0.0,0.0,0.0,0.0,0.0,0.0,0.0,0.0,0.0,0.0,0.0,0.0
1494526705286384379,302,1494526705585136134,gyro_link,0.0,0.0,0.0,1.0,1.79769313486e+308,0.0,0.0,0.0,1.79769313486e+308,0.0,0.0,0.0,0.05,0.0,0.0,0.0,1.79769313486e+308,0.0,0.0,0.0,1.79769313486e+308,0.0,0.0,0.0,0.05,0.0,0.0,0.0,0.0,0.0,0.0,0.0,0.0,0.0,0.0,0.0,0.0
1494526705286430125,303,1494526705604896907,gyro_link,0.0,0.0,0.0,1.0,1.79769313486e+308,0.0,0.0,0.0,1.79769313486e+308,0.0,0.0,0.0,0.05,0.0,0.0,0.0,1.79769313486e+308,0.0,0.0,0.0,1.79769313486e+308,0.0,0.0,0.0,0.05,0.0,0.0,0.0,0.0,0.0,0.0,0.0,0.0,0.0,0.0,0.0,0.0
1494526705286446028,304,1494526705624567014,gyro_link,0.0,0.0,0.0,1.0,1.79769313486e+308,0.0,0.0,0.0,1.79769313486e+308,0.0,0.0,0.0,0.05,0.0,0.0,0.0,1.79769313486e+308,0.0,0.0,0.0,1.79769313486e+308,0.0,0.0,0.0,0.05,0.0,0.0,0.0,0.0,0.0,0.0,0.0,0.0,0.0,0.0,0.0,0.0
1494526705286468618,305,1494526705643635626,gyro_link,0.0,0.0,0.0,1.0,1.79769313486e+308,0.0,0.0,0.0,1.79769313486e+308,0.0,0.0,0.0,0.05,0.0,0.0,0.0,1.79769313486e+308,0.0,0.0,0.0,1.79769313486e+308,0.0,0.0,0.0,0.05,0.0,0.0,0.0,0.0,0.0,0.0,0.0,0.0,0.0,0.0,0.0,0.0
1494526705286542090,306,1494526705664164060,gyro_link,0.0,0.0,0.0,1.0,1.79769313486e+308,0.0,0.0,0.0,1.79769313486e+308,0.0,0.0,0.0,0.05,0.0,0.0,0.0,1.79769313486e+308,0.0,0.0,0.0,1.79769313486e+308,0.0,0.0,0.0,0.05,0.0,0.0,0.0,0.0,0.0,0.0,0.0,0.0,0.0,0.0,0.0,0.0
1494526705286570100,307,1494526705684298413,gyro_link,0.0,0.0,0.0,1.0,1.79769313486e+308,0.0,0.0,0.0,1.79769313486e+308,0.0,0.0,0.0,0.05,0.0,0.0,0.0,1.79769313486e+308,0.0,0.0,0.0,1.79769313486e+308,0.0,0.0,0.0,0.05,0.0,0.0,0.0,0.0,0.0,0.0,0.0,0.0,0.0,0.0,0.0,0.0
1494526705286963361,308,1494526705704540225,gyro_link,0.0,0.0,0.0,1.0,1.79769313486e+308,0.0,0.0,0.0,1.79769313486e+308,0.0,0.0,0.0,0.05,0.0,0.0,0.0,1.79769313486e+308,0.0,0.0,0.0,1.79769313486e+308,0.0,0.0,0.0,0.05,0.0,0.0,0.0,0.0,0.0,0.0,0.0,0.0,0.0,0.0,0.0,0.0
1494526705287000851,309,1494526705725551280,gyro_link,0.0,0.0,0.0,1.0,1.79769313486e+308,0.0,0.0,0.0,1.79769313486e+308,0.0,0.0,0.0,0.05,0.0,0.0,0.0,1.79769313486e+308,0.0,0.0,0.0,1.79769313486e+308,0.0,0.0,0.0,0.05,0.0,0.0,0.0,0.0,0.0,0.0,0.0,0.0,0.0,0.0,0.0,0.0
1494526705287025611,310,1494526705746033173,gyro_link,0.0,0.0,0.0,1.0,1.79769313486e+308,0.0,0.0,0.0,1.79769313486e+308,0.0,0.0,0.0,0.05,0.0,0.0,0.0,1.79769313486e+308,0.0,0.0,0.0,1.79769313486e+308,0.0,0.0,0.0,0.05,0.0,0.0,0.0,0.0,0.0,0.0,0.0,0.0,0.0,0.0,0.0,0.0
1494526705290511743,311,1494526705765998028,gyro_link,0.0,0.0,0.0,1.0,1.79769313486e+308,0.0,0.0,0.0,1.79769313486e+308,0.0,0.0,0.0,0.05,0.0,0.0,0.0,1.79769313486e+308,0.0,0.0,0.0,1.79769313486e+308,0.0,0.0,0.0,0.05,0.0,0.0,0.0,0.0,0.0,0.0,0.0,0.0,0.0,0.0,0.0,0.0
1494526705301038578,312,1494526705787231749,gyro_link,0.0,0.0,0.0,1.0,1.79769313486e+308,0.0,0.0,0.0,1.79769313486e+308,0.0,0.0,0.0,0.05,0.0,0.0,0.0,1.79769313486e+308,0.0,0.0,0.0,1.79769313486e+308,0.0,0.0,0.0,0.05,0.0,0.0,0.0,0.0,0.0,0.0,0.0,0.0,0.0,0.0,0.0,0.0
1494526705317366946,313,1494526705806255402,gyro_link,0.0,0.0,0.0,1.0,1.79769313486e+308,0.0,0.0,0.0,1.79769313486e+308,0.0,0.0,0.0,0.05,0.0,0.0,0.0,1.79769313486e+308,0.0,0.0,0.0,1.79769313486e+308,0.0,0.0,0.0,0.05,0.0,0.0,0.0,0.0,0.0,0.0,0.0,0.0,0.0,0.0,0.0,0.0
1494526705338500581,314,1494526705826188549,gyro_link,0.0,0.0,0.0,1.0,1.79769313486e+308,0.0,0.0,0.0,1.79769313486e+308,0.0,0.0,0.0,0.05,0.0,0.0,0.0,1.79769313486e+308,0.0,0.0,0.0,1.79769313486e+308,0.0,0.0,0.0,0.05,0.0,0.0,0.0,0.0,0.0,0.0,0.0,0.0,0.0,0.0,0.0,0.0
1494526705364192298,315,1494526705846233653,gyro_link,0.0,0.0,0.0,1.0,1.79769313486e+308,0.0,0.0,0.0,1.79769313486e+308,0.0,0.0,0.0,0.05,0.0,0.0,0.0,1.79769313486e+308,0.0,0.0,0.0,1.79769313486e+308,0.0,0.0,0.0,0.05,0.0,0.0,0.0,0.0,0.0,0.0,0.0,0.0,0.0,0.0,0.0,0.0
1494526705382305796,316,1494526705866420840,gyro_link,0.0,0.0,0.0,1.0,1.79769313486e+308,0.0,0.0,0.0,1.79769313486e+308,0.0,0.0,0.0,0.05,0.0,0.0,0.0,1.79769313486e+308,0.0,0.0,0.0,1.79769313486e+308,0.0,0.0,0.0,0.05,0.0,0.0,0.0,0.0,0.0,0.0,0.0,0.0,0.0,0.0,0.0,0.0
1494526705395451587,317,1494526705884753123,gyro_link,0.0,0.0,0.0,1.0,1.79769313486e+308,0.0,0.0,0.0,1.79769313486e+308,0.0,0.0,0.0,0.05,0.0,0.0,0.0,1.79769313486e+308,0.0,0.0,0.0,1.79769313486e+308,0.0,0.0,0.0,0.05,0.0,0.0,0.0,0.0,0.0,0.0,0.0,0.0,0.0,0.0,0.0,0.0
1494526705418575315,318,1494526705905104642,gyro_link,0.0,0.0,0.0,1.0,1.79769313486e+308,0.0,0.0,0.0,1.79769313486e+308,0.0,0.0,0.0,0.05,0.0,0.0,0.0,1.79769313486e+308,0.0,0.0,0.0,1.79769313486e+308,0.0,0.0,0.0,0.05,0.0,0.0,0.0,0.0,0.0,0.0,0.0,0.0,0.0,0.0,0.0,0.0
1494526705438897767,319,1494526705925751492,gyro_link,0.0,0.0,0.0,1.0,1.79769313486e+308,0.0,0.0,0.0,1.79769313486e+308,0.0,0.0,0.0,0.05,0.0,0.0,0.0,1.79769313486e+308,0.0,0.0,0.0,1.79769313486e+308,0.0,0.0,0.0,0.05,0.0,0.0,0.0,0.0,0.0,0.0,0.0,0.0,0.0,0.0,0.0,0.0
1494526705465126966,320,1494526705949051906,gyro_link,0.0,0.0,0.0,1.0,1.79769313486e+308,0.0,0.0,0.0,1.79769313486e+308,0.0,0.0,0.0,0.05,0.0,0.0,0.0,1.79769313486e+308,0.0,0.0,0.0,1.79769313486e+308,0.0,0.0,0.0,0.05,0.0,0.0,0.0,0.0,0.0,0.0,0.0,0.0,0.0,0.0,0.0,0.0
1494526705477566330,321,1494526705964935332,gyro_link,0.0,0.0,0.0,1.0,1.79769313486e+308,0.0,0.0,0.0,1.79769313486e+308,0.0,0.0,0.0,0.05,0.0,0.0,0.0,1.79769313486e+308,0.0,0.0,0.0,1.79769313486e+308,0.0,0.0,0.0,0.05,0.0,0.0,0.0,0.0,0.0,0.0,0.0,0.0,0.0,0.0,0.0,0.0
1494526705496444601,322,1494526705984765730,gyro_link,0.0,0.0,0.0,1.0,1.79769313486e+308,0.0,0.0,0.0,1.79769313486e+308,0.0,0.0,0.0,0.05,0.0,0.0,0.0,1.79769313486e+308,0.0,0.0,0.0,1.79769313486e+308,0.0,0.0,0.0,0.05,0.0,0.0,0.0,0.0,0.0,0.0,0.0,0.0,0.0,0.0,0.0,0.0
1494526705515724715,323,1494526706004540086,gyro_link,0.0,0.0,0.0,1.0,1.79769313486e+308,0.0,0.0,0.0,1.79769313486e+308,0.0,0.0,0.0,0.05,0.0,0.0,0.0,1.79769313486e+308,0.0,0.0,0.0,1.79769313486e+308,0.0,0.0,0.0,0.05,0.0,0.0,0.0,0.0,0.0,0.0,0.0,0.0,0.0,0.0,0.0,0.0
1494526705535284996,324,1494526706024647107,gyro_link,0.0,0.0,0.0,1.0,1.79769313486e+308,0.0,0.0,0.0,1.79769313486e+308,0.0,0.0,0.0,0.05,0.0,0.0,0.0,1.79769313486e+308,0.0,0.0,0.0,1.79769313486e+308,0.0,0.0,0.0,0.05,0.0,0.0,0.0,0.0,0.0,0.0,0.0,0.0,0.0,0.0,0.0,0.0
1494526705557178138,325,1494526706044562837,gyro_link,0.0,0.0,0.0,1.0,1.79769313486e+308,0.0,0.0,0.0,1.79769313486e+308,0.0,0.0,0.0,0.05,0.0,0.0,0.0,1.79769313486e+308,0.0,0.0,0.0,1.79769313486e+308,0.0,0.0,0.0,0.05,0.0,0.0,0.0,0.0,0.0,0.0,0.0,0.0,0.0,0.0,0.0,0.0
1494526705575544354,326,1494526706064705524,gyro_link,0.0,0.0,0.0,1.0,1.79769313486e+308,0.0,0.0,0.0,1.79769313486e+308,0.0,0.0,0.0,0.05,0.0,0.0,0.0,1.79769313486e+308,0.0,0.0,0.0,1.79769313486e+308,0.0,0.0,0.0,0.05,0.0,0.0,0.0,0.0,0.0,0.0,0.0,0.0,0.0,0.0,0.0,0.0
1494526705704018645,327,1494526706084669962,gyro_link,0.0,0.0,0.0,1.0,1.79769313486e+308,0.0,0.0,0.0,1.79769313486e+308,0.0,0.0,0.0,0.05,0.0,0.0,0.0,1.79769313486e+308,0.0,0.0,0.0,1.79769313486e+308,0.0,0.0,0.0,0.05,0.0,0.0,0.0,0.0,0.0,0.0,0.0,0.0,0.0,0.0,0.0,0.0
1494526705704029525,328,1494526706105913600,gyro_link,0.0,0.0,0.0,1.0,1.79769313486e+308,0.0,0.0,0.0,1.79769313486e+308,0.0,0.0,0.0,0.05,0.0,0.0,0.0,1.79769313486e+308,0.0,0.0,0.0,1.79769313486e+308,0.0,0.0,0.0,0.05,0.0,0.0,0.0,0.0,0.0,0.0,0.0,0.0,0.0,0.0,0.0,0.0
1494526705704037438,329,1494526706124710005,gyro_link,0.0,0.0,0.0,1.0,1.79769313486e+308,0.0,0.0,0.0,1.79769313486e+308,0.0,0.0,0.0,0.05,0.0,0.0,0.0,1.79769313486e+308,0.0,0.0,0.0,1.79769313486e+308,0.0,0.0,0.0,0.05,0.0,0.0,0.0,0.0,0.0,0.0,0.0,0.0,0.0,0.0,0.0,0.0
1494526705704044394,330,1494526706144678401,gyro_link,0.0,0.0,0.0,1.0,1.79769313486e+308,0.0,0.0,0.0,1.79769313486e+308,0.0,0.0,0.0,0.05,0.0,0.0,0.0,1.79769313486e+308,0.0,0.0,0.0,1.79769313486e+308,0.0,0.0,0.0,0.05,0.0,0.0,0.0,0.0,0.0,0.0,0.0,0.0,0.0,0.0,0.0,0.0
1494526705704050719,331,1494526706164753755,gyro_link,0.0,0.0,0.0,1.0,1.79769313486e+308,0.0,0.0,0.0,1.79769313486e+308,0.0,0.0,0.0,0.05,0.0,0.0,0.0,1.79769313486e+308,0.0,0.0,0.0,1.79769313486e+308,0.0,0.0,0.0,0.05,0.0,0.0,0.0,0.0,0.0,0.0,0.0,0.0,0.0,0.0,0.0,0.0
1494526705709144325,332,1494526706184587861,gyro_link,0.0,0.0,0.0,1.0,1.79769313486e+308,0.0,0.0,0.0,1.79769313486e+308,0.0,0.0,0.0,0.05,0.0,0.0,0.0,1.79769313486e+308,0.0,0.0,0.0,1.79769313486e+308,0.0,0.0,0.0,0.05,0.0,0.0,0.0,0.0,0.0,0.0,0.0,0.0,0.0,0.0,0.0,0.0
1494526705716823308,333,1494526706205126379,gyro_link,0.0,0.0,0.0,1.0,1.79769313486e+308,0.0,0.0,0.0,1.79769313486e+308,0.0,0.0,0.0,0.05,0.0,0.0,0.0,1.79769313486e+308,0.0,0.0,0.0,1.79769313486e+308,0.0,0.0,0.0,0.05,0.0,0.0,0.0,0.0,0.0,0.0,0.0,0.0,0.0,0.0,0.0,0.0
1494526705736994913,334,1494526706225166566,gyro_link,0.0,0.0,0.0,1.0,1.79769313486e+308,0.0,0.0,0.0,1.79769313486e+308,0.0,0.0,0.0,0.05,0.0,0.0,0.0,1.79769313486e+308,0.0,0.0,0.0,1.79769313486e+308,0.0,0.0,0.0,0.05,0.0,0.0,0.0,0.0,0.0,0.0,0.0,0.0,0.0,0.0,0.0,0.0
1494526705756693786,335,1494526706244636008,gyro_link,0.0,0.0,0.0,1.0,1.79769313486e+308,0.0,0.0,0.0,1.79769313486e+308,0.0,0.0,0.0,0.05,0.0,0.0,0.0,1.79769313486e+308,0.0,0.0,0.0,1.79769313486e+308,0.0,0.0,0.0,0.05,0.0,0.0,0.0,0.0,0.0,0.0,0.0,0.0,0.0,0.0,0.0,0.0
1494526705774328345,336,1494526706264670029,gyro_link,0.0,0.0,0.0,1.0,1.79769313486e+308,0.0,0.0,0.0,1.79769313486e+308,0.0,0.0,0.0,0.05,0.0,0.0,0.0,1.79769313486e+308,0.0,0.0,0.0,1.79769313486e+308,0.0,0.0,0.0,0.05,0.0,0.0,0.0,0.0,0.0,0.0,0.0,0.0,0.0,0.0,0.0,0.0
1494526705795513228,337,1494526706284526052,gyro_link,0.0,0.0,0.0,1.0,1.79769313486e+308,0.0,0.0,0.0,1.79769313486e+308,0.0,0.0,0.0,0.05,0.0,0.0,0.0,1.79769313486e+308,0.0,0.0,0.0,1.79769313486e+308,0.0,0.0,0.0,0.05,0.0,0.0,0.0,0.0,0.0,0.0,0.0,0.0,0.0,0.0,0.0,0.0
1494526705823400251,338,1494526706305864897,gyro_link,0.0,0.0,0.0,1.0,1.79769313486e+308,0.0,0.0,0.0,1.79769313486e+308,0.0,0.0,0.0,0.05,0.0,0.0,0.0,1.79769313486e+308,0.0,0.0,0.0,1.79769313486e+308,0.0,0.0,0.0,0.05,0.0,0.0,0.0,0.0,0.0,0.0,0.0,0.0,0.0,0.0,0.0,0.0
1494526705834434006,339,1494526706324373637,gyro_link,0.0,0.0,0.0,1.0,1.79769313486e+308,0.0,0.0,0.0,1.79769313486e+308,0.0,0.0,0.0,0.05,0.0,0.0,0.0,1.79769313486e+308,0.0,0.0,0.0,1.79769313486e+308,0.0,0.0,0.0,0.05,0.0,0.0,0.0,0.0,0.0,0.0,0.0,0.0,0.0,0.0,0.0,0.0
1494526705854530163,340,1494526706344615490,gyro_link,0.0,0.0,0.0,1.0,1.79769313486e+308,0.0,0.0,0.0,1.79769313486e+308,0.0,0.0,0.0,0.05,0.0,0.0,0.0,1.79769313486e+308,0.0,0.0,0.0,1.79769313486e+308,0.0,0.0,0.0,0.05,0.0,0.0,0.0,0.0,0.0,0.0,0.0,0.0,0.0,0.0,0.0,0.0
1494526705875929636,341,1494526706364630970,gyro_link,0.0,0.0,0.0,1.0,1.79769313486e+308,0.0,0.0,0.0,1.79769313486e+308,0.0,0.0,0.0,0.05,0.0,0.0,0.0,1.79769313486e+308,0.0,0.0,0.0,1.79769313486e+308,0.0,0.0,0.0,0.05,0.0,0.0,0.0,0.0,0.0,0.0,0.0,0.0,0.0,0.0,0.0,0.0
1494526705897658563,342,1494526706384659616,gyro_link,0.0,0.0,0.0,1.0,1.79769313486e+308,0.0,0.0,0.0,1.79769313486e+308,0.0,0.0,0.0,0.05,0.0,0.0,0.0,1.79769313486e+308,0.0,0.0,0.0,1.79769313486e+308,0.0,0.0,0.0,0.05,0.0,0.0,0.0,0.0,0.0,0.0,0.0,0.0,0.0,0.0,0.0,0.0
1494526705916321157,343,1494526706404586763,gyro_link,0.0,0.0,0.0,1.0,1.79769313486e+308,0.0,0.0,0.0,1.79769313486e+308,0.0,0.0,0.0,0.05,0.0,0.0,0.0,1.79769313486e+308,0.0,0.0,0.0,1.79769313486e+308,0.0,0.0,0.0,0.05,0.0,0.0,0.0,0.0,0.0,0.0,0.0,0.0,0.0,0.0,0.0,0.0
1494526705939666213,344,1494526706425595485,gyro_link,0.0,0.0,0.0,1.0,1.79769313486e+308,0.0,0.0,0.0,1.79769313486e+308,0.0,0.0,0.0,0.05,0.0,0.0,0.0,1.79769313486e+308,0.0,0.0,0.0,1.79769313486e+308,0.0,0.0,0.0,0.05,0.0,0.0,0.0,0.0,0.0,0.0,0.0,0.0,0.0,0.0,0.0,0.0
1494526705959956018,345,1494526706445607173,gyro_link,0.0,0.0,0.0,1.0,1.79769313486e+308,0.0,0.0,0.0,1.79769313486e+308,0.0,0.0,0.0,0.05,0.0,0.0,0.0,1.79769313486e+308,0.0,0.0,0.0,1.79769313486e+308,0.0,0.0,0.0,0.05,0.0,0.0,0.0,0.0,0.0,0.0,0.0,0.0,0.0,0.0,0.0,0.0
1494526705978862692,346,1494526706466237231,gyro_link,0.0,0.0,0.0,1.0,1.79769313486e+308,0.0,0.0,0.0,1.79769313486e+308,0.0,0.0,0.0,0.05,0.0,0.0,0.0,1.79769313486e+308,0.0,0.0,0.0,1.79769313486e+308,0.0,0.0,0.0,0.05,0.0,0.0,0.0,0.0,0.0,0.0,0.0,0.0,0.0,0.0,0.0,0.0
1494526705996966507,347,1494526706485371467,gyro_link,0.0,0.0,0.0,1.0,1.79769313486e+308,0.0,0.0,0.0,1.79769313486e+308,0.0,0.0,0.0,0.05,0.0,0.0,0.0,1.79769313486e+308,0.0,0.0,0.0,1.79769313486e+308,0.0,0.0,0.0,0.05,0.0,0.0,0.0,0.0,0.0,0.0,0.0,0.0,0.0,0.0,0.0,0.0
1494526706018186909,348,1494526706505592279,gyro_link,0.0,0.0,0.0,1.0,1.79769313486e+308,0.0,0.0,0.0,1.79769313486e+308,0.0,0.0,0.0,0.05,0.0,0.0,0.0,1.79769313486e+308,0.0,0.0,0.0,1.79769313486e+308,0.0,0.0,0.0,0.05,0.0,0.0,0.0,0.0,0.0,0.0,0.0,0.0,0.0,0.0,0.0,0.0
1494526706035923210,349,1494526706525655424,gyro_link,0.0,0.0,0.0,1.0,1.79769313486e+308,0.0,0.0,0.0,1.79769313486e+308,0.0,0.0,0.0,0.05,0.0,0.0,0.0,1.79769313486e+308,0.0,0.0,0.0,1.79769313486e+308,0.0,0.0,0.0,0.05,0.0,0.0,0.0,0.0,0.0,0.0,0.0,0.0,0.0,0.0,0.0,0.0
1494526706056352373,350,1494526706545663362,gyro_link,0.0,0.0,0.0,1.0,1.79769313486e+308,0.0,0.0,0.0,1.79769313486e+308,0.0,0.0,0.0,0.05,0.0,0.0,0.0,1.79769313486e+308,0.0,0.0,0.0,1.79769313486e+308,0.0,0.0,0.0,0.05,0.0,0.0,0.0,0.0,0.0,0.0,0.0,0.0,0.0,0.0,0.0,0.0
1494526706080717410,351,1494526706567410454,gyro_link,0.0,0.0,0.0,1.0,1.79769313486e+308,0.0,0.0,0.0,1.79769313486e+308,0.0,0.0,0.0,0.05,0.0,0.0,0.0,1.79769313486e+308,0.0,0.0,0.0,1.79769313486e+308,0.0,0.0,0.0,0.05,0.0,0.0,0.0,0.0,0.0,0.0,0.0,0.0,0.0,0.0,0.0,0.0
1494526706202879851,352,1494526706584376498,gyro_link,0.0,0.0,0.0,1.0,1.79769313486e+308,0.0,0.0,0.0,1.79769313486e+308,0.0,0.0,0.0,0.05,0.0,0.0,0.0,1.79769313486e+308,0.0,0.0,0.0,1.79769313486e+308,0.0,0.0,0.0,0.05,0.0,0.0,0.0,0.0,0.0,0.0,0.0,0.0,0.0,0.0,0.0,0.0
1494526706202913048,353,1494526706604474393,gyro_link,0.0,0.0,0.0,1.0,1.79769313486e+308,0.0,0.0,0.0,1.79769313486e+308,0.0,0.0,0.0,0.05,0.0,0.0,0.0,1.79769313486e+308,0.0,0.0,0.0,1.79769313486e+308,0.0,0.0,0.0,0.05,0.0,0.0,0.0,0.0,0.0,0.0,0.0,0.0,0.0,0.0,0.0,0.0
1494526706202933294,354,1494526706624889537,gyro_link,0.0,0.0,0.0,1.0,1.79769313486e+308,0.0,0.0,0.0,1.79769313486e+308,0.0,0.0,0.0,0.05,0.0,0.0,0.0,1.79769313486e+308,0.0,0.0,0.0,1.79769313486e+308,0.0,0.0,0.0,0.05,0.0,0.0,0.0,0.0,0.0,0.0,0.0,0.0,0.0,0.0,0.0,0.0
1494526706202949589,355,1494526706644695976,gyro_link,0.0,0.0,0.0,1.0,1.79769313486e+308,0.0,0.0,0.0,1.79769313486e+308,0.0,0.0,0.0,0.05,0.0,0.0,0.0,1.79769313486e+308,0.0,0.0,0.0,1.79769313486e+308,0.0,0.0,0.0,0.05,0.0,0.0,0.0,0.0,0.0,0.0,0.0,0.0,0.0,0.0,0.0,0.0
1494526706202970936,356,1494526706664575582,gyro_link,0.0,0.0,0.0,1.0,1.79769313486e+308,0.0,0.0,0.0,1.79769313486e+308,0.0,0.0,0.0,0.05,0.0,0.0,0.0,1.79769313486e+308,0.0,0.0,0.0,1.79769313486e+308,0.0,0.0,0.0,0.05,0.0,0.0,0.0,0.0,0.0,0.0,0.0,0.0,0.0,0.0,0.0,0.0
1494526706211873257,357,1494526706686138383,gyro_link,0.0,0.0,0.0,1.0,1.79769313486e+308,0.0,0.0,0.0,1.79769313486e+308,0.0,0.0,0.0,0.05,0.0,0.0,0.0,1.79769313486e+308,0.0,0.0,0.0,1.79769313486e+308,0.0,0.0,0.0,0.05,0.0,0.0,0.0,0.0,0.0,0.0,0.0,0.0,0.0,0.0,0.0,0.0
1494526706217305265,358,1494526706706360486,gyro_link,0.0,0.0,0.0,1.0,1.79769313486e+308,0.0,0.0,0.0,1.79769313486e+308,0.0,0.0,0.0,0.05,0.0,0.0,0.0,1.79769313486e+308,0.0,0.0,0.0,1.79769313486e+308,0.0,0.0,0.0,0.05,0.0,0.0,0.0,0.0,0.0,0.0,0.0,0.0,0.0,0.0,0.0,0.0
1494526706238616850,359,1494526706725557180,gyro_link,0.0,0.0,0.0,1.0,1.79769313486e+308,0.0,0.0,0.0,1.79769313486e+308,0.0,0.0,0.0,0.05,0.0,0.0,0.0,1.79769313486e+308,0.0,0.0,0.0,1.79769313486e+308,0.0,0.0,0.0,0.05,0.0,0.0,0.0,0.0,0.0,0.0,0.0,0.0,0.0,0.0,0.0,0.0
1494526706444090448,360,1494526706745546160,gyro_link,0.0,0.0,0.0,1.0,1.79769313486e+308,0.0,0.0,0.0,1.79769313486e+308,0.0,0.0,0.0,0.05,0.0,0.0,0.0,1.79769313486e+308,0.0,0.0,0.0,1.79769313486e+308,0.0,0.0,0.0,0.05,0.0,0.0,0.0,0.0,0.0,0.0,0.0,0.0,0.0,0.0,0.0,0.0
1494526706444107086,361,1494526706765589264,gyro_link,0.0,0.0,0.0,1.0,1.79769313486e+308,0.0,0.0,0.0,1.79769313486e+308,0.0,0.0,0.0,0.05,0.0,0.0,0.0,1.79769313486e+308,0.0,0.0,0.0,1.79769313486e+308,0.0,0.0,0.0,0.05,0.0,0.0,0.0,0.0,0.0,0.0,0.0,0.0,0.0,0.0,0.0,0.0
1494526706444120369,362,1494526706786416863,gyro_link,0.0,0.0,0.0,1.0,1.79769313486e+308,0.0,0.0,0.0,1.79769313486e+308,0.0,0.0,0.0,0.05,0.0,0.0,0.0,1.79769313486e+308,0.0,0.0,0.0,1.79769313486e+308,0.0,0.0,0.0,0.05,0.0,0.0,0.0,0.0,0.0,0.0,0.0,0.0,0.0,0.0,0.0,0.0
1494526706444129478,363,1494526706806391843,gyro_link,0.0,0.0,0.0,1.0,1.79769313486e+308,0.0,0.0,0.0,1.79769313486e+308,0.0,0.0,0.0,0.05,0.0,0.0,0.0,1.79769313486e+308,0.0,0.0,0.0,1.79769313486e+308,0.0,0.0,0.0,0.05,0.0,0.0,0.0,0.0,0.0,0.0,0.0,0.0,0.0,0.0,0.0,0.0
1494526706444136691,364,1494526706826413072,gyro_link,0.0,0.0,0.0,1.0,1.79769313486e+308,0.0,0.0,0.0,1.79769313486e+308,0.0,0.0,0.0,0.05,0.0,0.0,0.0,1.79769313486e+308,0.0,0.0,0.0,1.79769313486e+308,0.0,0.0,0.0,0.05,0.0,0.0,0.0,0.0,0.0,0.0,0.0,0.0,0.0,0.0,0.0,0.0
1494526706444145076,365,1494526706846163012,gyro_link,0.0,0.0,0.0,1.0,1.79769313486e+308,0.0,0.0,0.0,1.79769313486e+308,0.0,0.0,0.0,0.05,0.0,0.0,0.0,1.79769313486e+308,0.0,0.0,0.0,1.79769313486e+308,0.0,0.0,0.0,0.05,0.0,0.0,0.0,0.0,0.0,0.0,0.0,0.0,0.0,0.0,0.0,0.0
1494526706444152837,366,1494526706866389240,gyro_link,0.0,0.0,0.0,1.0,1.79769313486e+308,0.0,0.0,0.0,1.79769313486e+308,0.0,0.0,0.0,0.05,0.0,0.0,0.0,1.79769313486e+308,0.0,0.0,0.0,1.79769313486e+308,0.0,0.0,0.0,0.05,0.0,0.0,0.0,0.0,0.0,0.0,0.0,0.0,0.0,0.0,0.0,0.0
1494526706444173476,367,1494526706885586059,gyro_link,0.0,0.0,0.0,1.0,1.79769313486e+308,0.0,0.0,0.0,1.79769313486e+308,0.0,0.0,0.0,0.05,0.0,0.0,0.0,1.79769313486e+308,0.0,0.0,0.0,1.79769313486e+308,0.0,0.0,0.0,0.05,0.0,0.0,0.0,0.0,0.0,0.0,0.0,0.0,0.0,0.0,0.0,0.0
1494526706444222377,368,1494526706905634747,gyro_link,0.0,0.0,0.0,1.0,1.79769313486e+308,0.0,0.0,0.0,1.79769313486e+308,0.0,0.0,0.0,0.05,0.0,0.0,0.0,1.79769313486e+308,0.0,0.0,0.0,1.79769313486e+308,0.0,0.0,0.0,0.05,0.0,0.0,0.0,0.0,0.0,0.0,0.0,0.0,0.0,0.0,0.0,0.0
1494526706446016650,369,1494526706925460727,gyro_link,0.0,0.0,0.0,1.0,1.79769313486e+308,0.0,0.0,0.0,1.79769313486e+308,0.0,0.0,0.0,0.05,0.0,0.0,0.0,1.79769313486e+308,0.0,0.0,0.0,1.79769313486e+308,0.0,0.0,0.0,0.05,0.0,0.0,0.0,0.0,0.0,0.0,0.0,0.0,0.0,0.0,0.0,0.0
1494526706456732348,370,1494526706946943321,gyro_link,0.0,0.0,0.0,1.0,1.79769313486e+308,0.0,0.0,0.0,1.79769313486e+308,0.0,0.0,0.0,0.05,0.0,0.0,0.0,1.79769313486e+308,0.0,0.0,0.0,1.79769313486e+308,0.0,0.0,0.0,0.05,0.0,0.0,0.0,0.0,0.0,0.0,0.0,0.0,0.0,0.0,0.0,0.0
1494526706598004172,371,1494526706965861392,gyro_link,0.0,0.0,0.0,1.0,1.79769313486e+308,0.0,0.0,0.0,1.79769313486e+308,0.0,0.0,0.0,0.05,0.0,0.0,0.0,1.79769313486e+308,0.0,0.0,0.0,1.79769313486e+308,0.0,0.0,0.0,0.05,0.0,0.0,0.0,0.0,0.0,0.0,0.0,0.0,0.0,0.0,0.0,0.0
1494526706598026689,372,1494526706985856205,gyro_link,0.0,0.0,0.0,1.0,1.79769313486e+308,0.0,0.0,0.0,1.79769313486e+308,0.0,0.0,0.0,0.05,0.0,0.0,0.0,1.79769313486e+308,0.0,0.0,0.0,1.79769313486e+308,0.0,0.0,0.0,0.05,0.0,0.0,0.0,0.0,0.0,0.0,0.0,0.0,0.0,0.0,0.0,0.0
1494526706598035124,373,1494526707005720019,gyro_link,0.0,0.0,0.0,1.0,1.79769313486e+308,0.0,0.0,0.0,1.79769313486e+308,0.0,0.0,0.0,0.05,0.0,0.0,0.0,1.79769313486e+308,0.0,0.0,0.0,1.79769313486e+308,0.0,0.0,0.0,0.05,0.0,0.0,0.0,0.0,0.0,0.0,0.0,0.0,0.0,0.0,0.0,0.0
1494526706598048480,374,1494526707025679124,gyro_link,0.0,0.0,0.0,1.0,1.79769313486e+308,0.0,0.0,0.0,1.79769313486e+308,0.0,0.0,0.0,0.05,0.0,0.0,0.0,1.79769313486e+308,0.0,0.0,0.0,1.79769313486e+308,0.0,0.0,0.0,0.05,0.0,0.0,0.0,0.0,0.0,0.0,0.0,0.0,0.0,0.0,0.0,0.0
1494526706598055485,375,1494526707047388633,gyro_link,0.0,0.0,0.0,1.0,1.79769313486e+308,0.0,0.0,0.0,1.79769313486e+308,0.0,0.0,0.0,0.05,0.0,0.0,0.0,1.79769313486e+308,0.0,0.0,0.0,1.79769313486e+308,0.0,0.0,0.0,0.05,0.0,0.0,0.0,0.0,0.0,0.0,0.0,0.0,0.0,0.0,0.0,0.0
1494526706714207274,376,1494526707069156017,gyro_link,0.0,0.0,0.0,1.0,1.79769313486e+308,0.0,0.0,0.0,1.79769313486e+308,0.0,0.0,0.0,0.05,0.0,0.0,0.0,1.79769313486e+308,0.0,0.0,0.0,1.79769313486e+308,0.0,0.0,0.0,0.05,0.0,0.0,0.0,0.0,0.0,0.0,0.0,0.0,0.0,0.0,0.0,0.0
1494526706714231235,377,1494526707085943311,gyro_link,0.0,0.0,0.0,1.0,1.79769313486e+308,0.0,0.0,0.0,1.79769313486e+308,0.0,0.0,0.0,0.05,0.0,0.0,0.0,1.79769313486e+308,0.0,0.0,0.0,1.79769313486e+308,0.0,0.0,0.0,0.05,0.0,0.0,0.0,0.0,0.0,0.0,0.0,0.0,0.0,0.0,0.0,0.0
1494526706714242064,378,1494526707105576252,gyro_link,0.0,0.0,0.0,1.0,1.79769313486e+308,0.0,0.0,0.0,1.79769313486e+308,0.0,0.0,0.0,0.05,0.0,0.0,0.0,1.79769313486e+308,0.0,0.0,0.0,1.79769313486e+308,0.0,0.0,0.0,0.05,0.0,0.0,0.0,0.0,0.0,0.0,0.0,0.0,0.0,0.0,0.0,0.0
1494526706714249584,379,1494526707125423608,gyro_link,0.0,0.0,0.0,1.0,1.79769313486e+308,0.0,0.0,0.0,1.79769313486e+308,0.0,0.0,0.0,0.05,0.0,0.0,0.0,1.79769313486e+308,0.0,0.0,0.0,1.79769313486e+308,0.0,0.0,0.0,0.05,0.0,0.0,0.0,0.0,0.0,0.0,0.0,0.0,0.0,0.0,0.0,0.0
1494526706714256125,380,1494526707145493212,gyro_link,0.0,0.0,0.0,1.0,1.79769313486e+308,0.0,0.0,0.0,1.79769313486e+308,0.0,0.0,0.0,0.05,0.0,0.0,0.0,1.79769313486e+308,0.0,0.0,0.0,1.79769313486e+308,0.0,0.0,0.0,0.05,0.0,0.0,0.0,0.0,0.0,0.0,0.0,0.0,0.0,0.0,0.0,0.0
1494526706714321743,381,1494526707167003222,gyro_link,0.0,0.0,0.0,1.0,1.79769313486e+308,0.0,0.0,0.0,1.79769313486e+308,0.0,0.0,0.0,0.05,0.0,0.0,0.0,1.79769313486e+308,0.0,0.0,0.0,1.79769313486e+308,0.0,0.0,0.0,0.05,0.0,0.0,0.0,0.0,0.0,0.0,0.0,0.0,0.0,0.0,0.0,0.0
1494526706729151634,382,1494526707186966952,gyro_link,0.0,0.0,0.0,1.0,1.79769313486e+308,0.0,0.0,0.0,1.79769313486e+308,0.0,0.0,0.0,0.05,0.0,0.0,0.0,1.79769313486e+308,0.0,0.0,0.0,1.79769313486e+308,0.0,0.0,0.0,0.05,0.0,0.0,0.0,0.0,0.0,0.0,0.0,0.0,0.0,0.0,0.0,0.0
1494526706729208647,383,1494526707208250214,gyro_link,0.0,0.0,0.0,1.0,1.79769313486e+308,0.0,0.0,0.0,1.79769313486e+308,0.0,0.0,0.0,0.05,0.0,0.0,0.0,1.79769313486e+308,0.0,0.0,0.0,1.79769313486e+308,0.0,0.0,0.0,0.05,0.0,0.0,0.0,0.0,0.0,0.0,0.0,0.0,0.0,0.0,0.0,0.0
1494526706742676788,384,1494526707228253402,gyro_link,0.0,0.0,0.0,1.0,1.79769313486e+308,0.0,0.0,0.0,1.79769313486e+308,0.0,0.0,0.0,0.05,0.0,0.0,0.0,1.79769313486e+308,0.0,0.0,0.0,1.79769313486e+308,0.0,0.0,0.0,0.05,0.0,0.0,0.0,0.0,0.0,0.0,0.0,0.0,0.0,0.0,0.0,0.0
1494526706759616626,385,1494526707246184397,gyro_link,0.0,0.0,0.0,1.0,1.79769313486e+308,0.0,0.0,0.0,1.79769313486e+308,0.0,0.0,0.0,0.05,0.0,0.0,0.0,1.79769313486e+308,0.0,0.0,0.0,1.79769313486e+308,0.0,0.0,0.0,0.05,0.0,0.0,0.0,0.0,0.0,0.0,0.0,0.0,0.0,0.0,0.0,0.0
1494526706776772966,386,1494526707265502673,gyro_link,0.0,0.0,0.0,1.0,1.79769313486e+308,0.0,0.0,0.0,1.79769313486e+308,0.0,0.0,0.0,0.05,0.0,0.0,0.0,1.79769313486e+308,0.0,0.0,0.0,1.79769313486e+308,0.0,0.0,0.0,0.05,0.0,0.0,0.0,0.0,0.0,0.0,0.0,0.0,0.0,0.0,0.0,0.0
1494526706797816082,387,1494526707285477195,gyro_link,0.0,0.0,0.0,1.0,1.79769313486e+308,0.0,0.0,0.0,1.79769313486e+308,0.0,0.0,0.0,0.05,0.0,0.0,0.0,1.79769313486e+308,0.0,0.0,0.0,1.79769313486e+308,0.0,0.0,0.0,0.05,0.0,0.0,0.0,0.0,0.0,0.0,0.0,0.0,0.0,0.0,0.0,0.0
1494526706817265042,388,1494526707305287509,gyro_link,0.0,0.0,0.0,1.0,1.79769313486e+308,0.0,0.0,0.0,1.79769313486e+308,0.0,0.0,0.0,0.05,0.0,0.0,0.0,1.79769313486e+308,0.0,0.0,0.0,1.79769313486e+308,0.0,0.0,0.0,0.05,0.0,0.0,0.0,0.0,0.0,0.0,0.0,0.0,0.0,0.0,0.0,0.0
1494526706843880889,389,1494526707329126002,gyro_link,0.0,0.0,0.0,1.0,1.79769313486e+308,0.0,0.0,0.0,1.79769313486e+308,0.0,0.0,0.0,0.05,0.0,0.0,0.0,1.79769313486e+308,0.0,0.0,0.0,1.79769313486e+308,0.0,0.0,0.0,0.05,0.0,0.0,0.0,0.0,0.0,0.0,0.0,0.0,0.0,0.0,0.0,0.0
1494526706865614090,390,1494526707347314620,gyro_link,0.0,0.0,0.0,1.0,1.79769313486e+308,0.0,0.0,0.0,1.79769313486e+308,0.0,0.0,0.0,0.05,0.0,0.0,0.0,1.79769313486e+308,0.0,0.0,0.0,1.79769313486e+308,0.0,0.0,0.0,0.05,0.0,0.0,0.0,0.0,0.0,0.0,0.0,0.0,0.0,0.0,0.0,0.0
1494526706881209817,391,1494526707367797555,gyro_link,0.0,0.0,0.0,1.0,1.79769313486e+308,0.0,0.0,0.0,1.79769313486e+308,0.0,0.0,0.0,0.05,0.0,0.0,0.0,1.79769313486e+308,0.0,0.0,0.0,1.79769313486e+308,0.0,0.0,0.0,0.05,0.0,0.0,0.0,0.0,0.0,0.0,0.0,0.0,0.0,0.0,0.0,0.0
1494526706900546389,392,1494526707385583259,gyro_link,0.0,0.0,0.0,1.0,1.79769313486e+308,0.0,0.0,0.0,1.79769313486e+308,0.0,0.0,0.0,0.05,0.0,0.0,0.0,1.79769313486e+308,0.0,0.0,0.0,1.79769313486e+308,0.0,0.0,0.0,0.05,0.0,0.0,0.0,0.0,0.0,0.0,0.0,0.0,0.0,0.0,0.0,0.0
1494526706916384303,393,1494526707405522031,gyro_link,0.0,0.0,0.0,1.0,1.79769313486e+308,0.0,0.0,0.0,1.79769313486e+308,0.0,0.0,0.0,0.05,0.0,0.0,0.0,1.79769313486e+308,0.0,0.0,0.0,1.79769313486e+308,0.0,0.0,0.0,0.05,0.0,0.0,0.0,0.0,0.0,0.0,0.0,0.0,0.0,0.0,0.0,0.0
1494526706936964215,394,1494526707425427511,gyro_link,0.0,0.0,0.0,1.0,1.79769313486e+308,0.0,0.0,0.0,1.79769313486e+308,0.0,0.0,0.0,0.05,0.0,0.0,0.0,1.79769313486e+308,0.0,0.0,0.0,1.79769313486e+308,0.0,0.0,0.0,0.05,0.0,0.0,0.0,0.0,0.0,0.0,0.0,0.0,0.0,0.0,0.0,0.0
1494526706957298829,395,1494526707446277234,gyro_link,0.0,0.0,0.0,1.0,1.79769313486e+308,0.0,0.0,0.0,1.79769313486e+308,0.0,0.0,0.0,0.05,0.0,0.0,0.0,1.79769313486e+308,0.0,0.0,0.0,1.79769313486e+308,0.0,0.0,0.0,0.05,0.0,0.0,0.0,0.0,0.0,0.0,0.0,0.0,0.0,0.0,0.0,0.0
1494526706976314849,396,1494526707466262339,gyro_link,0.0,0.0,0.0,1.0,1.79769313486e+308,0.0,0.0,0.0,1.79769313486e+308,0.0,0.0,0.0,0.05,0.0,0.0,0.0,1.79769313486e+308,0.0,0.0,0.0,1.79769313486e+308,0.0,0.0,0.0,0.05,0.0,0.0,0.0,0.0,0.0,0.0,0.0,0.0,0.0,0.0,0.0,0.0
1494526707003664037,397,1494526707487619976,gyro_link,0.0,0.0,0.0,1.0,1.79769313486e+308,0.0,0.0,0.0,1.79769313486e+308,0.0,0.0,0.0,0.05,0.0,0.0,0.0,1.79769313486e+308,0.0,0.0,0.0,1.79769313486e+308,0.0,0.0,0.0,0.05,0.0,0.0,0.0,0.0,0.0,0.0,0.0,0.0,0.0,0.0,0.0,0.0
1494526707015881959,398,1494526707506331298,gyro_link,0.0,0.0,0.0,1.0,1.79769313486e+308,0.0,0.0,0.0,1.79769313486e+308,0.0,0.0,0.0,0.05,0.0,0.0,0.0,1.79769313486e+308,0.0,0.0,0.0,1.79769313486e+308,0.0,0.0,0.0,0.05,0.0,0.0,0.0,0.0,0.0,0.0,0.0,0.0,0.0,0.0,0.0,0.0
1494526707036958128,399,1494526707526197404,gyro_link,0.0,0.0,0.0,1.0,1.79769313486e+308,0.0,0.0,0.0,1.79769313486e+308,0.0,0.0,0.0,0.05,0.0,0.0,0.0,1.79769313486e+308,0.0,0.0,0.0,1.79769313486e+308,0.0,0.0,0.0,0.05,0.0,0.0,0.0,0.0,0.0,0.0,0.0,0.0,0.0,0.0,0.0,0.0
1494526707057016959,400,1494526707545330056,gyro_link,0.0,0.0,0.0,1.0,1.79769313486e+308,0.0,0.0,0.0,1.79769313486e+308,0.0,0.0,0.0,0.05,0.0,0.0,0.0,1.79769313486e+308,0.0,0.0,0.0,1.79769313486e+308,0.0,0.0,0.0,0.05,0.0,0.0,0.0,0.0,0.0,0.0,0.0,0.0,0.0,0.0,0.0,0.0
1494526707075801043,401,1494526707565424202,gyro_link,0.0,0.0,0.0,1.0,1.79769313486e+308,0.0,0.0,0.0,1.79769313486e+308,0.0,0.0,0.0,0.05,0.0,0.0,0.0,1.79769313486e+308,0.0,0.0,0.0,1.79769313486e+308,0.0,0.0,0.0,0.05,0.0,0.0,0.0,0.0,0.0,0.0,0.0,0.0,0.0,0.0,0.0,0.0
1494526707105714556,402,1494526707585278891,gyro_link,0.0,0.0,0.0,1.0,1.79769313486e+308,0.0,0.0,0.0,1.79769313486e+308,0.0,0.0,0.0,0.05,0.0,0.0,0.0,1.79769313486e+308,0.0,0.0,0.0,1.79769313486e+308,0.0,0.0,0.0,0.05,0.0,0.0,0.0,0.0,0.0,0.0,0.0,0.0,0.0,0.0,0.0,0.0
1494526707125506540,403,1494526707607362689,gyro_link,0.0,0.0,0.0,1.0,1.79769313486e+308,0.0,0.0,0.0,1.79769313486e+308,0.0,0.0,0.0,0.05,0.0,0.0,0.0,1.79769313486e+308,0.0,0.0,0.0,1.79769313486e+308,0.0,0.0,0.0,0.05,0.0,0.0,0.0,0.0,0.0,0.0,0.0,0.0,0.0,0.0,0.0,0.0
1494526707143341528,404,1494526707627711208,gyro_link,0.0,0.0,0.0,1.0,1.79769313486e+308,0.0,0.0,0.0,1.79769313486e+308,0.0,0.0,0.0,0.05,0.0,0.0,0.0,1.79769313486e+308,0.0,0.0,0.0,1.79769313486e+308,0.0,0.0,0.0,0.05,0.0,0.0,0.0,0.0,0.0,0.0,0.0,0.0,0.0,0.0,0.0,0.0
1494526707169003060,405,1494526707650021921,gyro_link,0.0,0.0,0.0,1.0,1.79769313486e+308,0.0,0.0,0.0,1.79769313486e+308,0.0,0.0,0.0,0.05,0.0,0.0,0.0,1.79769313486e+308,0.0,0.0,0.0,1.79769313486e+308,0.0,0.0,0.0,0.05,0.0,0.0,0.0,0.0,0.0,0.0,0.0,0.0,0.0,0.0,0.0,0.0
1494526707178146099,406,1494526707667296087,gyro_link,0.0,0.0,0.0,1.0,1.79769313486e+308,0.0,0.0,0.0,1.79769313486e+308,0.0,0.0,0.0,0.05,0.0,0.0,0.0,1.79769313486e+308,0.0,0.0,0.0,1.79769313486e+308,0.0,0.0,0.0,0.05,0.0,0.0,0.0,0.0,0.0,0.0,0.0,0.0,0.0,0.0,0.0,0.0
1494526707196378484,407,1494526707686214491,gyro_link,0.0,0.0,0.0,1.0,1.79769313486e+308,0.0,0.0,0.0,1.79769313486e+308,0.0,0.0,0.0,0.05,0.0,0.0,0.0,1.79769313486e+308,0.0,0.0,0.0,1.79769313486e+308,0.0,0.0,0.0,0.05,0.0,0.0,0.0,0.0,0.0,0.0,0.0,0.0,0.0,0.0,0.0,0.0
1494526707217111033,408,1494526707706207054,gyro_link,0.0,0.0,0.0,1.0,1.79769313486e+308,0.0,0.0,0.0,1.79769313486e+308,0.0,0.0,0.0,0.05,0.0,0.0,0.0,1.79769313486e+308,0.0,0.0,0.0,1.79769313486e+308,0.0,0.0,0.0,0.05,0.0,0.0,0.0,0.0,0.0,0.0,0.0,0.0,0.0,0.0,0.0,0.0
1494526707238486451,409,1494526707726723613,gyro_link,0.0,0.0,0.0,1.0,1.79769313486e+308,0.0,0.0,0.0,1.79769313486e+308,0.0,0.0,0.0,0.05,0.0,0.0,0.0,1.79769313486e+308,0.0,0.0,0.0,1.79769313486e+308,0.0,0.0,0.0,0.05,0.0,0.0,0.0,0.0,0.0,0.0,0.0,0.0,0.0,0.0,0.0,0.0
1494526707256895272,410,1494526707746347346,gyro_link,0.0,0.0,0.0,1.0,1.79769313486e+308,0.0,0.0,0.0,1.79769313486e+308,0.0,0.0,0.0,0.05,0.0,0.0,0.0,1.79769313486e+308,0.0,0.0,0.0,1.79769313486e+308,0.0,0.0,0.0,0.05,0.0,0.0,0.0,0.0,0.0,0.0,0.0,0.0,0.0,0.0,0.0,0.0
1494526707281724057,411,1494526707768188479,gyro_link,0.0,0.0,0.0,1.0,1.79769313486e+308,0.0,0.0,0.0,1.79769313486e+308,0.0,0.0,0.0,0.05,0.0,0.0,0.0,1.79769313486e+308,0.0,0.0,0.0,1.79769313486e+308,0.0,0.0,0.0,0.05,0.0,0.0,0.0,0.0,0.0,0.0,0.0,0.0,0.0,0.0,0.0,0.0
1494526707295940712,412,1494526707786395221,gyro_link,0.0,0.0,0.0,1.0,1.79769313486e+308,0.0,0.0,0.0,1.79769313486e+308,0.0,0.0,0.0,0.05,0.0,0.0,0.0,1.79769313486e+308,0.0,0.0,0.0,1.79769313486e+308,0.0,0.0,0.0,0.05,0.0,0.0,0.0,0.0,0.0,0.0,0.0,0.0,0.0,0.0,0.0,0.0
1494526707316056965,413,1494526707806454992,gyro_link,0.0,0.0,0.0,1.0,1.79769313486e+308,0.0,0.0,0.0,1.79769313486e+308,0.0,0.0,0.0,0.05,0.0,0.0,0.0,1.79769313486e+308,0.0,0.0,0.0,1.79769313486e+308,0.0,0.0,0.0,0.05,0.0,0.0,0.0,0.0,0.0,0.0,0.0,0.0,0.0,0.0,0.0,0.0
1494526707338117617,414,1494526707827255299,gyro_link,0.0,0.0,0.0,1.0,1.79769313486e+308,0.0,0.0,0.0,1.79769313486e+308,0.0,0.0,0.0,0.05,0.0,0.0,0.0,1.79769313486e+308,0.0,0.0,0.0,1.79769313486e+308,0.0,0.0,0.0,0.05,0.0,0.0,0.0,0.0,0.0,0.0,0.0,0.0,0.0,0.0,0.0,0.0
1494526707356962882,415,1494526707846172870,gyro_link,0.0,0.0,0.0,1.0,1.79769313486e+308,0.0,0.0,0.0,1.79769313486e+308,0.0,0.0,0.0,0.05,0.0,0.0,0.0,1.79769313486e+308,0.0,0.0,0.0,1.79769313486e+308,0.0,0.0,0.0,0.05,0.0,0.0,0.0,0.0,0.0,0.0,0.0,0.0,0.0,0.0,0.0,0.0
1494526707377566600,416,1494526707867729172,gyro_link,0.0,0.0,0.0,1.0,1.79769313486e+308,0.0,0.0,0.0,1.79769313486e+308,0.0,0.0,0.0,0.05,0.0,0.0,0.0,1.79769313486e+308,0.0,0.0,0.0,1.79769313486e+308,0.0,0.0,0.0,0.05,0.0,0.0,0.0,0.0,0.0,0.0,0.0,0.0,0.0,0.0,0.0,0.0
1494526707397494833,417,1494526707886119413,gyro_link,0.0,0.0,0.0,1.0,1.79769313486e+308,0.0,0.0,0.0,1.79769313486e+308,0.0,0.0,0.0,0.05,0.0,0.0,0.0,1.79769313486e+308,0.0,0.0,0.0,1.79769313486e+308,0.0,0.0,0.0,0.05,0.0,0.0,0.0,0.0,0.0,0.0,0.0,0.0,0.0,0.0,0.0,0.0
1494526707417808331,418,1494526707906109726,gyro_link,0.0,0.0,0.0,1.0,1.79769313486e+308,0.0,0.0,0.0,1.79769313486e+308,0.0,0.0,0.0,0.05,0.0,0.0,0.0,1.79769313486e+308,0.0,0.0,0.0,1.79769313486e+308,0.0,0.0,0.0,0.05,0.0,0.0,0.0,0.0,0.0,0.0,0.0,0.0,0.0,0.0,0.0,0.0
1494526707440582716,419,1494526707926272913,gyro_link,0.0,0.0,0.0,1.0,1.79769313486e+308,0.0,0.0,0.0,1.79769313486e+308,0.0,0.0,0.0,0.05,0.0,0.0,0.0,1.79769313486e+308,0.0,0.0,0.0,1.79769313486e+308,0.0,0.0,0.0,0.05,0.0,0.0,0.0,0.0,0.0,0.0,0.0,0.0,0.0,0.0,0.0,0.0
1494526707457407299,420,1494526707946526599,gyro_link,0.0,0.0,0.0,1.0,1.79769313486e+308,0.0,0.0,0.0,1.79769313486e+308,0.0,0.0,0.0,0.05,0.0,0.0,0.0,1.79769313486e+308,0.0,0.0,0.0,1.79769313486e+308,0.0,0.0,0.0,0.05,0.0,0.0,0.0,0.0,0.0,0.0,0.0,0.0,0.0,0.0,0.0,0.0
1494526707485971297,421,1494526707968836604,gyro_link,0.0,0.0,0.0,1.0,1.79769313486e+308,0.0,0.0,0.0,1.79769313486e+308,0.0,0.0,0.0,0.05,0.0,0.0,0.0,1.79769313486e+308,0.0,0.0,0.0,1.79769313486e+308,0.0,0.0,0.0,0.05,0.0,0.0,0.0,0.0,0.0,0.0,0.0,0.0,0.0,0.0,0.0,0.0
1494526707515579809,422,1494526707987496802,gyro_link,0.0,0.0,0.0,1.0,1.79769313486e+308,0.0,0.0,0.0,1.79769313486e+308,0.0,0.0,0.0,0.05,0.0,0.0,0.0,1.79769313486e+308,0.0,0.0,0.0,1.79769313486e+308,0.0,0.0,0.0,0.05,0.0,0.0,0.0,0.0,0.0,0.0,0.0,0.0,0.0,0.0,0.0,0.0
1494526707526221589,423,1494526708008002361,gyro_link,0.0,0.0,0.0,1.0,1.79769313486e+308,0.0,0.0,0.0,1.79769313486e+308,0.0,0.0,0.0,0.05,0.0,0.0,0.0,1.79769313486e+308,0.0,0.0,0.0,1.79769313486e+308,0.0,0.0,0.0,0.05,0.0,0.0,0.0,0.0,0.0,0.0,0.0,0.0,0.0,0.0,0.0,0.0
1494526707543234828,424,1494526708027043222,gyro_link,0.0,0.0,0.0,1.0,1.79769313486e+308,0.0,0.0,0.0,1.79769313486e+308,0.0,0.0,0.0,0.05,0.0,0.0,0.0,1.79769313486e+308,0.0,0.0,0.0,1.79769313486e+308,0.0,0.0,0.0,0.05,0.0,0.0,0.0,0.0,0.0,0.0,0.0,0.0,0.0,0.0,0.0,0.0
1494526707563006018,425,1494526708046994036,gyro_link,0.0,0.0,0.0,1.0,1.79769313486e+308,0.0,0.0,0.0,1.79769313486e+308,0.0,0.0,0.0,0.05,0.0,0.0,0.0,1.79769313486e+308,0.0,0.0,0.0,1.79769313486e+308,0.0,0.0,0.0,0.05,0.0,0.0,0.0,0.0,0.0,0.0,0.0,0.0,0.0,0.0,0.0,0.0
1494526707583236084,426,1494526708066956016,gyro_link,0.0,0.0,0.0,1.0,1.79769313486e+308,0.0,0.0,0.0,1.79769313486e+308,0.0,0.0,0.0,0.05,0.0,0.0,0.0,1.79769313486e+308,0.0,0.0,0.0,1.79769313486e+308,0.0,0.0,0.0,0.05,0.0,0.0,0.0,0.0,0.0,0.0,0.0,0.0,0.0,0.0,0.0,0.0
1494526707603381696,427,1494526708087286326,gyro_link,0.0,0.0,0.0,1.0,1.79769313486e+308,0.0,0.0,0.0,1.79769313486e+308,0.0,0.0,0.0,0.05,0.0,0.0,0.0,1.79769313486e+308,0.0,0.0,0.0,1.79769313486e+308,0.0,0.0,0.0,0.05,0.0,0.0,0.0,0.0,0.0,0.0,0.0,0.0,0.0,0.0,0.0,0.0
1494526707618221157,428,1494526708107540554,gyro_link,0.0,0.0,0.0,1.0,1.79769313486e+308,0.0,0.0,0.0,1.79769313486e+308,0.0,0.0,0.0,0.05,0.0,0.0,0.0,1.79769313486e+308,0.0,0.0,0.0,1.79769313486e+308,0.0,0.0,0.0,0.05,0.0,0.0,0.0,0.0,0.0,0.0,0.0,0.0,0.0,0.0,0.0,0.0
1494526707639833866,429,1494526708126489666,gyro_link,0.0,0.0,0.0,1.0,1.79769313486e+308,0.0,0.0,0.0,1.79769313486e+308,0.0,0.0,0.0,0.05,0.0,0.0,0.0,1.79769313486e+308,0.0,0.0,0.0,1.79769313486e+308,0.0,0.0,0.0,0.05,0.0,0.0,0.0,0.0,0.0,0.0,0.0,0.0,0.0,0.0,0.0,0.0
1494526707659616313,430,1494526708146406980,gyro_link,0.0,0.0,0.0,1.0,1.79769313486e+308,0.0,0.0,0.0,1.79769313486e+308,0.0,0.0,0.0,0.05,0.0,0.0,0.0,1.79769313486e+308,0.0,0.0,0.0,1.79769313486e+308,0.0,0.0,0.0,0.05,0.0,0.0,0.0,0.0,0.0,0.0,0.0,0.0,0.0,0.0,0.0,0.0
1494526707676014954,431,1494526708166162545,gyro_link,0.0,0.0,0.0,1.0,1.79769313486e+308,0.0,0.0,0.0,1.79769313486e+308,0.0,0.0,0.0,0.05,0.0,0.0,0.0,1.79769313486e+308,0.0,0.0,0.0,1.79769313486e+308,0.0,0.0,0.0,0.05,0.0,0.0,0.0,0.0,0.0,0.0,0.0,0.0,0.0,0.0,0.0,0.0
1494526707698110642,432,1494526708187185225,gyro_link,0.0,0.0,0.0,1.0,1.79769313486e+308,0.0,0.0,0.0,1.79769313486e+308,0.0,0.0,0.0,0.05,0.0,0.0,0.0,1.79769313486e+308,0.0,0.0,0.0,1.79769313486e+308,0.0,0.0,0.0,0.05,0.0,0.0,0.0,0.0,0.0,0.0,0.0,0.0,0.0,0.0,0.0,0.0
1494526707720543013,433,1494526708207842909,gyro_link,0.0,0.0,0.0,1.0,1.79769313486e+308,0.0,0.0,0.0,1.79769313486e+308,0.0,0.0,0.0,0.05,0.0,0.0,0.0,1.79769313486e+308,0.0,0.0,0.0,1.79769313486e+308,0.0,0.0,0.0,0.05,0.0,0.0,0.0,0.0,0.0,0.0,0.0,0.0,0.0,0.0,0.0,0.0
1494526707737722697,434,1494526708227221434,gyro_link,0.0,0.0,0.0,1.0,1.79769313486e+308,0.0,0.0,0.0,1.79769313486e+308,0.0,0.0,0.0,0.05,0.0,0.0,0.0,1.79769313486e+308,0.0,0.0,0.0,1.79769313486e+308,0.0,0.0,0.0,0.05,0.0,0.0,0.0,0.0,0.0,0.0,0.0,0.0,0.0,0.0,0.0,0.0
1494526707763793082,435,1494526708247099040,gyro_link,0.0,0.0,0.0,1.0,1.79769313486e+308,0.0,0.0,0.0,1.79769313486e+308,0.0,0.0,0.0,0.05,0.0,0.0,0.0,1.79769313486e+308,0.0,0.0,0.0,1.79769313486e+308,0.0,0.0,0.0,0.05,0.0,0.0,0.0,0.0,0.0,0.0,0.0,0.0,0.0,0.0,0.0,0.0
1494526707882904458,436,1494526708266853980,gyro_link,0.0,0.0,0.0,1.0,1.79769313486e+308,0.0,0.0,0.0,1.79769313486e+308,0.0,0.0,0.0,0.05,0.0,0.0,0.0,1.79769313486e+308,0.0,0.0,0.0,1.79769313486e+308,0.0,0.0,0.0,0.05,0.0,0.0,0.0,0.0,0.0,0.0,0.0,0.0,0.0,0.0,0.0,0.0
1494526707882927311,437,1494526708286220547,gyro_link,0.0,0.0,0.0,1.0,1.79769313486e+308,0.0,0.0,0.0,1.79769313486e+308,0.0,0.0,0.0,0.05,0.0,0.0,0.0,1.79769313486e+308,0.0,0.0,0.0,1.79769313486e+308,0.0,0.0,0.0,0.05,0.0,0.0,0.0,0.0,0.0,0.0,0.0,0.0,0.0,0.0,0.0,0.0
1494526707882935117,438,1494526708307077271,gyro_link,0.0,0.0,0.0,1.0,1.79769313486e+308,0.0,0.0,0.0,1.79769313486e+308,0.0,0.0,0.0,0.05,0.0,0.0,0.0,1.79769313486e+308,0.0,0.0,0.0,1.79769313486e+308,0.0,0.0,0.0,0.05,0.0,0.0,0.0,0.0,0.0,0.0,0.0,0.0,0.0,0.0,0.0,0.0
1494526707882941416,439,1494526708326137882,gyro_link,0.0,0.0,0.0,1.0,1.79769313486e+308,0.0,0.0,0.0,1.79769313486e+308,0.0,0.0,0.0,0.05,0.0,0.0,0.0,1.79769313486e+308,0.0,0.0,0.0,1.79769313486e+308,0.0,0.0,0.0,0.05,0.0,0.0,0.0,0.0,0.0,0.0,0.0,0.0,0.0,0.0,0.0,0.0
1494526707882949881,440,1494526708346131445,gyro_link,0.0,0.0,0.0,1.0,1.79769313486e+308,0.0,0.0,0.0,1.79769313486e+308,0.0,0.0,0.0,0.05,0.0,0.0,0.0,1.79769313486e+308,0.0,0.0,0.0,1.79769313486e+308,0.0,0.0,0.0,0.05,0.0,0.0,0.0,0.0,0.0,0.0,0.0,0.0,0.0,0.0,0.0,0.0
1494526707884696155,441,1494526708366230383,gyro_link,0.0,0.0,0.0,1.0,1.79769313486e+308,0.0,0.0,0.0,1.79769313486e+308,0.0,0.0,0.0,0.05,0.0,0.0,0.0,1.79769313486e+308,0.0,0.0,0.0,1.79769313486e+308,0.0,0.0,0.0,0.05,0.0,0.0,0.0,0.0,0.0,0.0,0.0,0.0,0.0,0.0,0.0,0.0
1494526707898915473,442,1494526708387161939,gyro_link,0.0,0.0,0.0,1.0,1.79769313486e+308,0.0,0.0,0.0,1.79769313486e+308,0.0,0.0,0.0,0.05,0.0,0.0,0.0,1.79769313486e+308,0.0,0.0,0.0,1.79769313486e+308,0.0,0.0,0.0,0.05,0.0,0.0,0.0,0.0,0.0,0.0,0.0,0.0,0.0,0.0,0.0,0.0
1494526707923016291,443,1494526708409221820,gyro_link,0.0,0.0,0.0,1.0,1.79769313486e+308,0.0,0.0,0.0,1.79769313486e+308,0.0,0.0,0.0,0.05,0.0,0.0,0.0,1.79769313486e+308,0.0,0.0,0.0,1.79769313486e+308,0.0,0.0,0.0,0.05,0.0,0.0,0.0,0.0,0.0,0.0,0.0,0.0,0.0,0.0,0.0,0.0
1494526707942465663,444,1494526708428045225,gyro_link,0.0,0.0,0.0,1.0,1.79769313486e+308,0.0,0.0,0.0,1.79769313486e+308,0.0,0.0,0.0,0.05,0.0,0.0,0.0,1.79769313486e+308,0.0,0.0,0.0,1.79769313486e+308,0.0,0.0,0.0,0.05,0.0,0.0,0.0,0.0,0.0,0.0,0.0,0.0,0.0,0.0,0.0,0.0
1494526707960378932,445,1494526708447132420,gyro_link,0.0,0.0,0.0,1.0,1.79769313486e+308,0.0,0.0,0.0,1.79769313486e+308,0.0,0.0,0.0,0.05,0.0,0.0,0.0,1.79769313486e+308,0.0,0.0,0.0,1.79769313486e+308,0.0,0.0,0.0,0.05,0.0,0.0,0.0,0.0,0.0,0.0,0.0,0.0,0.0,0.0,0.0,0.0
1494526707977942689,446,1494526708467156858,gyro_link,0.0,0.0,0.0,1.0,1.79769313486e+308,0.0,0.0,0.0,1.79769313486e+308,0.0,0.0,0.0,0.05,0.0,0.0,0.0,1.79769313486e+308,0.0,0.0,0.0,1.79769313486e+308,0.0,0.0,0.0,0.05,0.0,0.0,0.0,0.0,0.0,0.0,0.0,0.0,0.0,0.0,0.0,0.0
1494526707996792800,447,1494526708487020672,gyro_link,0.0,0.0,0.0,1.0,1.79769313486e+308,0.0,0.0,0.0,1.79769313486e+308,0.0,0.0,0.0,0.05,0.0,0.0,0.0,1.79769313486e+308,0.0,0.0,0.0,1.79769313486e+308,0.0,0.0,0.0,0.05,0.0,0.0,0.0,0.0,0.0,0.0,0.0,0.0,0.0,0.0,0.0,0.0
1494526708017818569,448,1494526708507132192,gyro_link,0.0,0.0,0.0,1.0,1.79769313486e+308,0.0,0.0,0.0,1.79769313486e+308,0.0,0.0,0.0,0.05,0.0,0.0,0.0,1.79769313486e+308,0.0,0.0,0.0,1.79769313486e+308,0.0,0.0,0.0,0.05,0.0,0.0,0.0,0.0,0.0,0.0,0.0,0.0,0.0,0.0,0.0,0.0
1494526708038106719,449,1494526708527134755,gyro_link,0.0,0.0,0.0,1.0,1.79769313486e+308,0.0,0.0,0.0,1.79769313486e+308,0.0,0.0,0.0,0.05,0.0,0.0,0.0,1.79769313486e+308,0.0,0.0,0.0,1.79769313486e+308,0.0,0.0,0.0,0.05,0.0,0.0,0.0,0.0,0.0,0.0,0.0,0.0,0.0,0.0,0.0,0.0
