%time,field.header.seq,field.header.stamp,field.header.frame_id,field.orientation.x,field.orientation.y,field.orientation.z,field.orientation.w,field.orientation_covariance0,field.orientation_covariance1,field.orientation_covariance2,field.orientation_covariance3,field.orientation_covariance4,field.orientation_covariance5,field.orientation_covariance6,field.orientation_covariance7,field.orientation_covariance8,field.angular_velocity.x,field.angular_velocity.y,field.angular_velocity.z,field.angular_velocity_covariance0,field.angular_velocity_covariance1,field.angular_velocity_covariance2,field.angular_velocity_covariance3,field.angular_velocity_covariance4,field.angular_velocity_covariance5,field.angular_velocity_covariance6,field.angular_velocity_covariance7,field.angular_velocity_covariance8,field.linear_acceleration.x,field.linear_acceleration.y,field.linear_acceleration.z,field.linear_acceleration_covariance0,field.linear_acceleration_covariance1,field.linear_acceleration_covariance2,field.linear_acceleration_covariance3,field.linear_acceleration_covariance4,field.linear_acceleration_covariance5,field.linear_acceleration_covariance6,field.linear_acceleration_covariance7,field.linear_acceleration_covariance8
1494527466477568958,0,1494527466961270353,gyro_link,0.0,0.0,0.0,1.0,1.79769313486e+308,0.0,0.0,0.0,1.79769313486e+308,0.0,0.0,0.0,0.05,0.0,0.0,0.0,1.79769313486e+308,0.0,0.0,0.0,1.79769313486e+308,0.0,0.0,0.0,0.05,0.0,0.0,0.0,0.0,0.0,0.0,0.0,0.0,0.0,0.0,0.0,0.0
1494527466495864947,1,1494527466981283543,gyro_link,0.0,0.0,0.0,1.0,1.79769313486e+308,0.0,0.0,0.0,1.79769313486e+308,0.0,0.0,0.0,0.05,0.0,0.0,0.0,1.79769313486e+308,0.0,0.0,0.0,1.79769313486e+308,0.0,0.0,0.0,0.05,0.0,0.0,0.0,0.0,0.0,0.0,0.0,0.0,0.0,0.0,0.0,0.0
1494527466516052532,2,1494527467001153527,gyro_link,0.0,0.0,0.0,1.0,1.79769313486e+308,0.0,0.0,0.0,1.79769313486e+308,0.0,0.0,0.0,0.05,0.0,0.0,0.0,1.79769313486e+308,0.0,0.0,0.0,1.79769313486e+308,0.0,0.0,0.0,0.05,0.0,0.0,0.0,0.0,0.0,0.0,0.0,0.0,0.0,0.0,0.0,0.0
1494527466536666114,3,1494527467021215092,gyro_link,0.0,0.0,0.0,1.0,1.79769313486e+308,0.0,0.0,0.0,1.79769313486e+308,0.0,0.0,0.0,0.05,0.0,0.0,0.0,1.79769313486e+308,0.0,0.0,0.0,1.79769313486e+308,0.0,0.0,0.0,0.05,0.0,0.0,0.0,0.0,0.0,0.0,0.0,0.0,0.0,0.0,0.0,0.0
1494527466555871819,4,1494527467041014327,gyro_link,0.0,0.0,0.0,1.0,1.79769313486e+308,0.0,0.0,0.0,1.79769313486e+308,0.0,0.0,0.0,0.05,0.0,0.0,0.0,1.79769313486e+308,0.0,0.0,0.0,1.79769313486e+308,0.0,0.0,0.0,0.05,0.0,0.0,0.0,0.0,0.0,0.0,0.0,0.0,0.0,0.0,0.0,0.0
1494527466580073431,5,1494527467061372722,gyro_link,0.0,0.0,0.0,1.0,1.79769313486e+308,0.0,0.0,0.0,1.79769313486e+308,0.0,0.0,0.0,0.05,0.0,0.0,0.0,1.79769313486e+308,0.0,0.0,0.0,1.79769313486e+308,0.0,0.0,0.0,0.05,0.0,0.0,0.0,0.0,0.0,0.0,0.0,0.0,0.0,0.0,0.0,0.0
1494527466595004377,6,1494527467080995251,gyro_link,0.0,0.0,0.0,1.0,1.79769313486e+308,0.0,0.0,0.0,1.79769313486e+308,0.0,0.0,0.0,0.05,0.0,0.0,0.0,1.79769313486e+308,0.0,0.0,0.0,1.79769313486e+308,0.0,0.0,0.0,0.05,0.0,0.0,0.0,0.0,0.0,0.0,0.0,0.0,0.0,0.0,0.0,0.0
1494527466616416469,7,1494527467101097649,gyro_link,0.0,0.0,0.0,1.0,1.79769313486e+308,0.0,0.0,0.0,1.79769313486e+308,0.0,0.0,0.0,0.05,0.0,0.0,0.0,1.79769313486e+308,0.0,0.0,0.0,1.79769313486e+308,0.0,0.0,0.0,0.05,0.0,0.0,0.0,0.0,0.0,0.0,0.0,0.0,0.0,0.0,0.0,0.0
1494527466636774723,8,1494527467122118245,gyro_link,0.0,0.0,0.0,1.0,1.79769313486e+308,0.0,0.0,0.0,1.79769313486e+308,0.0,0.0,0.0,0.05,0.0,0.0,0.0,1.79769313486e+308,0.0,0.0,0.0,1.79769313486e+308,0.0,0.0,0.0,0.05,0.0,0.0,0.0,0.0,0.0,0.0,0.0,0.0,0.0,0.0,0.0,0.0
1494527466656543310,9,1494527467142224893,gyro_link,0.0,0.0,0.0,1.0,1.79769313486e+308,0.0,0.0,0.0,1.79769313486e+308,0.0,0.0,0.0,0.05,0.0,0.0,0.0,1.79769313486e+308,0.0,0.0,0.0,1.79769313486e+308,0.0,0.0,0.0,0.05,0.0,0.0,0.0,0.0,0.0,0.0,0.0,0.0,0.0,0.0,0.0,0.0
1494527466677696052,10,1494527467162761869,gyro_link,0.0,0.0,0.0,1.0,1.79769313486e+308,0.0,0.0,0.0,1.79769313486e+308,0.0,0.0,0.0,0.05,0.0,0.0,0.0,1.79769313486e+308,0.0,0.0,0.0,1.79769313486e+308,0.0,0.0,0.0,0.05,0.0,0.0,0.0,0.0,0.0,0.0,0.0,0.0,0.0,0.0,0.0,0.0
1494527466696682318,11,1494527467182074568,gyro_link,0.0,0.0,0.0,1.0,1.79769313486e+308,0.0,0.0,0.0,1.79769313486e+308,0.0,0.0,0.0,0.05,0.0,0.0,0.0,1.79769313486e+308,0.0,0.0,0.0,1.79769313486e+308,0.0,0.0,0.0,0.05,0.0,0.0,0.0,0.0,0.0,0.0,0.0,0.0,0.0,0.0,0.0,0.0
1494527466716254930,12,1494527467202004468,gyro_link,0.0,0.0,0.0,1.0,1.79769313486e+308,0.0,0.0,0.0,1.79769313486e+308,0.0,0.0,0.0,0.05,0.0,0.0,0.0,1.79769313486e+308,0.0,0.0,0.0,1.79769313486e+308,0.0,0.0,0.0,0.05,0.0,0.0,0.0,0.0,0.0,0.0,0.0,0.0,0.0,0.0,0.0,0.0
1494527466761301558,13,1494527467220873005,gyro_link,0.0,0.0,0.0,1.0,1.79769313486e+308,0.0,0.0,0.0,1.79769313486e+308,0.0,0.0,0.0,0.05,0.0,0.0,0.0,1.79769313486e+308,0.0,0.0,0.0,1.79769313486e+308,0.0,0.0,0.0,0.05,0.0,0.0,0.0,0.0,0.0,0.0,0.0,0.0,0.0,0.0,0.0,0.0
1494527466775911113,14,1494527467240862487,gyro_link,0.0,0.0,0.0,1.0,1.79769313486e+308,0.0,0.0,0.0,1.79769313486e+308,0.0,0.0,0.0,0.05,0.0,0.0,0.0,1.79769313486e+308,0.0,0.0,0.0,1.79769313486e+308,0.0,0.0,0.0,0.05,0.0,0.0,0.0,0.0,0.0,0.0,0.0,0.0,0.0,0.0,0.0,0.0
1494527466781712119,15,1494527467262831198,gyro_link,0.0,0.0,0.0,1.0,1.79769313486e+308,0.0,0.0,0.0,1.79769313486e+308,0.0,0.0,0.0,0.05,0.0,0.0,0.0,1.79769313486e+308,0.0,0.0,0.0,1.79769313486e+308,0.0,0.0,0.0,0.05,0.0,0.0,0.0,0.0,0.0,0.0,0.0,0.0,0.0,0.0,0.0,0.0
1494527466796432132,16,1494527467281117616,gyro_link,0.0,0.0,0.0,1.0,1.79769313486e+308,0.0,0.0,0.0,1.79769313486e+308,0.0,0.0,0.0,0.05,0.0,0.0,0.0,1.79769313486e+308,0.0,0.0,0.0,1.79769313486e+308,0.0,0.0,0.0,0.05,0.0,0.0,0.0,0.0,0.0,0.0,0.0,0.0,0.0,0.0,0.0,0.0
1494527466816550679,17,1494527467302017464,gyro_link,0.0,0.0,0.0,1.0,1.79769313486e+308,0.0,0.0,0.0,1.79769313486e+308,0.0,0.0,0.0,0.05,0.0,0.0,0.0,1.79769313486e+308,0.0,0.0,0.0,1.79769313486e+308,0.0,0.0,0.0,0.05,0.0,0.0,0.0,0.0,0.0,0.0,0.0,0.0,0.0,0.0,0.0,0.0
1494527466838149033,18,1494527467322105153,gyro_link,0.0,0.0,0.0,1.0,1.79769313486e+308,0.0,0.0,0.0,1.79769313486e+308,0.0,0.0,0.0,0.05,0.0,0.0,0.0,1.79769313486e+308,0.0,0.0,0.0,1.79769313486e+308,0.0,0.0,0.0,0.05,0.0,0.0,0.0,0.0,0.0,0.0,0.0,0.0,0.0,0.0,0.0,0.0
1494527466856677446,19,1494527467343106500,gyro_link,0.0,0.0,0.0,1.0,1.79769313486e+308,0.0,0.0,0.0,1.79769313486e+308,0.0,0.0,0.0,0.05,0.0,0.0,0.0,1.79769313486e+308,0.0,0.0,0.0,1.79769313486e+308,0.0,0.0,0.0,0.05,0.0,0.0,0.0,0.0,0.0,0.0,0.0,0.0,0.0,0.0,0.0,0.0
1494527466875912825,20,1494527467362047119,gyro_link,0.0,0.0,0.0,1.0,1.79769313486e+308,0.0,0.0,0.0,1.79769313486e+308,0.0,0.0,0.0,0.05,0.0,0.0,0.0,1.79769313486e+308,0.0,0.0,0.0,1.79769313486e+308,0.0,0.0,0.0,0.05,0.0,0.0,0.0,0.0,0.0,0.0,0.0,0.0,0.0,0.0,0.0,0.0
1494527466899098013,21,1494527467382778052,gyro_link,0.0,0.0,0.0,1.0,1.79769313486e+308,0.0,0.0,0.0,1.79769313486e+308,0.0,0.0,0.0,0.05,0.0,0.0,0.0,1.79769313486e+308,0.0,0.0,0.0,1.79769313486e+308,0.0,0.0,0.0,0.05,0.0,0.0,0.0,0.0,0.0,0.0,0.0,0.0,0.0,0.0,0.0,0.0
1494527466920733256,22,1494527467403497818,gyro_link,0.0,0.0,0.0,1.0,1.79769313486e+308,0.0,0.0,0.0,1.79769313486e+308,0.0,0.0,0.0,0.05,0.0,0.0,0.0,1.79769313486e+308,0.0,0.0,0.0,1.79769313486e+308,0.0,0.0,0.0,0.05,0.0,0.0,0.0,0.0,0.0,0.0,0.0,0.0,0.0,0.0,0.0,0.0
1494527466936729006,23,1494527467421951610,gyro_link,0.0,0.0,0.0,1.0,1.79769313486e+308,0.0,0.0,0.0,1.79769313486e+308,0.0,0.0,0.0,0.05,0.0,0.0,0.0,1.79769313486e+308,0.0,0.0,0.0,1.79769313486e+308,0.0,0.0,0.0,0.05,0.0,0.0,0.0,0.0,0.0,0.0,0.0,0.0,0.0,0.0,0.0,0.0
1494527466956526332,24,1494527467442053133,gyro_link,0.0,0.0,0.0,1.0,1.79769313486e+308,0.0,0.0,0.0,1.79769313486e+308,0.0,0.0,0.0,0.05,0.0,0.0,0.0,1.79769313486e+308,0.0,0.0,0.0,1.79769313486e+308,0.0,0.0,0.0,0.05,0.0,0.0,0.0,0.0,0.0,0.0,0.0,0.0,0.0,0.0,0.0,0.0
1494527466978630634,25,1494527467462034740,gyro_link,0.0,0.0,0.0,1.0,1.79769313486e+308,0.0,0.0,0.0,1.79769313486e+308,0.0,0.0,0.0,0.05,0.0,0.0,0.0,1.79769313486e+308,0.0,0.0,0.0,1.79769313486e+308,0.0,0.0,0.0,0.05,0.0,0.0,0.0,0.0,0.0,0.0,0.0,0.0,0.0,0.0,0.0,0.0
1494527466996179351,26,1494527467481931807,gyro_link,0.0,0.0,0.0,1.0,1.79769313486e+308,0.0,0.0,0.0,1.79769313486e+308,0.0,0.0,0.0,0.05,0.0,0.0,0.0,1.79769313486e+308,0.0,0.0,0.0,1.79769313486e+308,0.0,0.0,0.0,0.05,0.0,0.0,0.0,0.0,0.0,0.0,0.0,0.0,0.0,0.0,0.0,0.0
1494527467019013465,27,1494527467503013111,gyro_link,0.0,0.0,0.0,1.0,1.79769313486e+308,0.0,0.0,0.0,1.79769313486e+308,0.0,0.0,0.0,0.05,0.0,0.0,0.0,1.79769313486e+308,0.0,0.0,0.0,1.79769313486e+308,0.0,0.0,0.0,0.05,0.0,0.0,0.0,0.0,0.0,0.0,0.0,0.0,0.0,0.0,0.0,0.0
1494527467036889006,28,1494527467522114645,gyro_link,0.0,0.0,0.0,1.0,1.79769313486e+308,0.0,0.0,0.0,1.79769313486e+308,0.0,0.0,0.0,0.05,0.0,0.0,0.0,1.79769313486e+308,0.0,0.0,0.0,1.79769313486e+308,0.0,0.0,0.0,0.05,0.0,0.0,0.0,0.0,0.0,0.0,0.0,0.0,0.0,0.0,0.0,0.0
1494527467056674086,29,1494527467541889589,gyro_link,0.0,0.0,0.0,1.0,1.79769313486e+308,0.0,0.0,0.0,1.79769313486e+308,0.0,0.0,0.0,0.05,0.0,0.0,0.0,1.79769313486e+308,0.0,0.0,0.0,1.79769313486e+308,0.0,0.0,0.0,0.05,0.0,0.0,0.0,0.0,0.0,0.0,0.0,0.0,0.0,0.0,0.0,0.0
1494527467078046423,30,1494527467562104819,gyro_link,0.0,0.0,0.0,1.0,1.79769313486e+308,0.0,0.0,0.0,1.79769313486e+308,0.0,0.0,0.0,0.05,0.0,0.0,0.0,1.79769313486e+308,0.0,0.0,0.0,1.79769313486e+308,0.0,0.0,0.0,0.05,0.0,0.0,0.0,0.0,0.0,0.0,0.0,0.0,0.0,0.0,0.0,0.0
1494527467098611684,31,1494527467582087593,gyro_link,0.0,0.0,0.0,1.0,1.79769313486e+308,0.0,0.0,0.0,1.79769313486e+308,0.0,0.0,0.0,0.05,0.0,0.0,0.0,1.79769313486e+308,0.0,0.0,0.0,1.79769313486e+308,0.0,0.0,0.0,0.05,0.0,0.0,0.0,0.0,0.0,0.0,0.0,0.0,0.0,0.0,0.0,0.0
1494527467121744811,32,1494527467602110159,gyro_link,0.0,0.0,0.0,1.0,1.79769313486e+308,0.0,0.0,0.0,1.79769313486e+308,0.0,0.0,0.0,0.05,0.0,0.0,0.0,1.79769313486e+308,0.0,0.0,0.0,1.79769313486e+308,0.0,0.0,0.0,0.05,0.0,0.0,0.0,0.0,0.0,0.0,0.0,0.0,0.0,0.0,0.0,0.0
1494527467136900253,33,1494527467621858228,gyro_link,0.0,0.0,0.0,1.0,1.79769313486e+308,0.0,0.0,0.0,1.79769313486e+308,0.0,0.0,0.0,0.05,0.0,0.0,0.0,1.79769313486e+308,0.0,0.0,0.0,1.79769313486e+308,0.0,0.0,0.0,0.05,0.0,0.0,0.0,0.0,0.0,0.0,0.0,0.0,0.0,0.0,0.0,0.0
1494527467159861265,34,1494527467642609077,gyro_link,0.0,0.0,0.0,1.0,1.79769313486e+308,0.0,0.0,0.0,1.79769313486e+308,0.0,0.0,0.0,0.05,0.0,0.0,0.0,1.79769313486e+308,0.0,0.0,0.0,1.79769313486e+308,0.0,0.0,0.0,0.05,0.0,0.0,0.0,0.0,0.0,0.0,0.0,0.0,0.0,0.0,0.0,0.0
1494527467178926413,35,1494527467662751391,gyro_link,0.0,0.0,0.0,1.0,1.79769313486e+308,0.0,0.0,0.0,1.79769313486e+308,0.0,0.0,0.0,0.05,0.0,0.0,0.0,1.79769313486e+308,0.0,0.0,0.0,1.79769313486e+308,0.0,0.0,0.0,0.05,0.0,0.0,0.0,0.0,0.0,0.0,0.0,0.0,0.0,0.0,0.0,0.0
1494527467200353505,36,1494527467683728946,gyro_link,0.0,0.0,0.0,1.0,1.79769313486e+308,0.0,0.0,0.0,1.79769313486e+308,0.0,0.0,0.0,0.05,0.0,0.0,0.0,1.79769313486e+308,0.0,0.0,0.0,1.79769313486e+308,0.0,0.0,0.0,0.05,0.0,0.0,0.0,0.0,0.0,0.0,0.0,0.0,0.0,0.0,0.0,0.0
1494527467218705418,37,1494527467702906854,gyro_link,0.0,0.0,0.0,1.0,1.79769313486e+308,0.0,0.0,0.0,1.79769313486e+308,0.0,0.0,0.0,0.05,0.0,0.0,0.0,1.79769313486e+308,0.0,0.0,0.0,1.79769313486e+308,0.0,0.0,0.0,0.05,0.0,0.0,0.0,0.0,0.0,0.0,0.0,0.0,0.0,0.0,0.0,0.0
1494527467240395657,38,1494527467721833557,gyro_link,0.0,0.0,0.0,1.0,1.79769313486e+308,0.0,0.0,0.0,1.79769313486e+308,0.0,0.0,0.0,0.05,0.0,0.0,0.0,1.79769313486e+308,0.0,0.0,0.0,1.79769313486e+308,0.0,0.0,0.0,0.05,0.0,0.0,0.0,0.0,0.0,0.0,0.0,0.0,0.0,0.0,0.0,0.0
1494527467257952790,39,1494527467741842706,gyro_link,0.0,0.0,0.0,1.0,1.79769313486e+308,0.0,0.0,0.0,1.79769313486e+308,0.0,0.0,0.0,0.05,0.0,0.0,0.0,1.79769313486e+308,0.0,0.0,0.0,1.79769313486e+308,0.0,0.0,0.0,0.05,0.0,0.0,0.0,0.0,0.0,0.0,0.0,0.0,0.0,0.0,0.0,0.0
1494527467287768503,40,1494527467762906218,gyro_link,0.0,0.0,0.0,1.0,1.79769313486e+308,0.0,0.0,0.0,1.79769313486e+308,0.0,0.0,0.0,0.05,0.0,0.0,0.0,1.79769313486e+308,0.0,0.0,0.0,1.79769313486e+308,0.0,0.0,0.0,0.05,0.0,0.0,0.0,0.0,0.0,0.0,0.0,0.0,0.0,0.0,0.0,0.0
1494527467298444568,41,1494527467782145751,gyro_link,0.0,0.0,0.0,1.0,1.79769313486e+308,0.0,0.0,0.0,1.79769313486e+308,0.0,0.0,0.0,0.05,0.0,0.0,0.0,1.79769313486e+308,0.0,0.0,0.0,1.79769313486e+308,0.0,0.0,0.0,0.05,0.0,0.0,0.0,0.0,0.0,0.0,0.0,0.0,0.0,0.0,0.0,0.0
1494527467319017501,42,1494527467803187930,gyro_link,0.0,0.0,0.0,1.0,1.79769313486e+308,0.0,0.0,0.0,1.79769313486e+308,0.0,0.0,0.0,0.05,0.0,0.0,0.0,1.79769313486e+308,0.0,0.0,0.0,1.79769313486e+308,0.0,0.0,0.0,0.05,0.0,0.0,0.0,0.0,0.0,0.0,0.0,0.0,0.0,0.0,0.0,0.0
1494527467346478706,43,1494527467822888583,gyro_link,0.0,0.0,0.0,1.0,1.79769313486e+308,0.0,0.0,0.0,1.79769313486e+308,0.0,0.0,0.0,0.05,0.0,0.0,0.0,1.79769313486e+308,0.0,0.0,0.0,1.79769313486e+308,0.0,0.0,0.0,0.05,0.0,0.0,0.0,0.0,0.0,0.0,0.0,0.0,0.0,0.0,0.0,0.0
1494527467367846518,44,1494527467842800400,gyro_link,0.0,0.0,0.0,1.0,1.79769313486e+308,0.0,0.0,0.0,1.79769313486e+308,0.0,0.0,0.0,0.05,0.0,0.0,0.0,1.79769313486e+308,0.0,0.0,0.0,1.79769313486e+308,0.0,0.0,0.0,0.05,0.0,0.0,0.0,0.0,0.0,0.0,0.0,0.0,0.0,0.0,0.0,0.0
1494527467391193412,45,1494527467861992475,gyro_link,0.0,0.0,0.0,1.0,1.79769313486e+308,0.0,0.0,0.0,1.79769313486e+308,0.0,0.0,0.0,0.05,0.0,0.0,0.0,1.79769313486e+308,0.0,0.0,0.0,1.79769313486e+308,0.0,0.0,0.0,0.05,0.0,0.0,0.0,0.0,0.0,0.0,0.0,0.0,0.0,0.0,0.0,0.0
1494527467398757085,46,1494527467883167361,gyro_link,0.0,0.0,0.0,1.0,1.79769313486e+308,0.0,0.0,0.0,1.79769313486e+308,0.0,0.0,0.0,0.05,0.0,0.0,0.0,1.79769313486e+308,0.0,0.0,0.0,1.79769313486e+308,0.0,0.0,0.0,0.05,0.0,0.0,0.0,0.0,0.0,0.0,0.0,0.0,0.0,0.0,0.0,0.0
1494527467418004213,47,1494527467902848014,gyro_link,0.0,0.0,0.0,1.0,1.79769313486e+308,0.0,0.0,0.0,1.79769313486e+308,0.0,0.0,0.0,0.05,0.0,0.0,0.0,1.79769313486e+308,0.0,0.0,0.0,1.79769313486e+308,0.0,0.0,0.0,0.05,0.0,0.0,0.0,0.0,0.0,0.0,0.0,0.0,0.0,0.0,0.0,0.0
1494527467439090685,48,1494527467922818705,gyro_link,0.0,0.0,0.0,1.0,1.79769313486e+308,0.0,0.0,0.0,1.79769313486e+308,0.0,0.0,0.0,0.05,0.0,0.0,0.0,1.79769313486e+308,0.0,0.0,0.0,1.79769313486e+308,0.0,0.0,0.0,0.05,0.0,0.0,0.0,0.0,0.0,0.0,0.0,0.0,0.0,0.0,0.0,0.0
1494527467457442900,49,1494527467942980810,gyro_link,0.0,0.0,0.0,1.0,1.79769313486e+308,0.0,0.0,0.0,1.79769313486e+308,0.0,0.0,0.0,0.05,0.0,0.0,0.0,1.79769313486e+308,0.0,0.0,0.0,1.79769313486e+308,0.0,0.0,0.0,0.05,0.0,0.0,0.0,0.0,0.0,0.0,0.0,0.0,0.0,0.0,0.0,0.0
1494527467487835687,50,1494527467963083875,gyro_link,0.0,0.0,0.0,1.0,1.79769313486e+308,0.0,0.0,0.0,1.79769313486e+308,0.0,0.0,0.0,0.05,0.0,0.0,0.0,1.79769313486e+308,0.0,0.0,0.0,1.79769313486e+308,0.0,0.0,0.0,0.05,0.0,0.0,0.0,0.0,0.0,0.0,0.0,0.0,0.0,0.0,0.0,0.0
1494527467497669858,51,1494527467982818194,gyro_link,0.0,0.0,0.0,1.0,1.79769313486e+308,0.0,0.0,0.0,1.79769313486e+308,0.0,0.0,0.0,0.05,0.0,0.0,0.0,1.79769313486e+308,0.0,0.0,0.0,1.79769313486e+308,0.0,0.0,0.0,0.05,0.0,0.0,0.0,0.0,0.0,0.0,0.0,0.0,0.0,0.0,0.0,0.0
1494527467518529305,52,1494527468004434283,gyro_link,0.0,0.0,0.0,1.0,1.79769313486e+308,0.0,0.0,0.0,1.79769313486e+308,0.0,0.0,0.0,0.05,0.0,0.0,0.0,1.79769313486e+308,0.0,0.0,0.0,1.79769313486e+308,0.0,0.0,0.0,0.05,0.0,0.0,0.0,0.0,0.0,0.0,0.0,0.0,0.0,0.0,0.0,0.0
1494527467537311491,53,1494527468022753619,gyro_link,0.0,0.0,0.0,1.0,1.79769313486e+308,0.0,0.0,0.0,1.79769313486e+308,0.0,0.0,0.0,0.05,0.0,0.0,0.0,1.79769313486e+308,0.0,0.0,0.0,1.79769313486e+308,0.0,0.0,0.0,0.05,0.0,0.0,0.0,0.0,0.0,0.0,0.0,0.0,0.0,0.0,0.0,0.0
1494527467557692817,54,1494527468043002724,gyro_link,0.0,0.0,0.0,1.0,1.79769313486e+308,0.0,0.0,0.0,1.79769313486e+308,0.0,0.0,0.0,0.05,0.0,0.0,0.0,1.79769313486e+308,0.0,0.0,0.0,1.79769313486e+308,0.0,0.0,0.0,0.05,0.0,0.0,0.0,0.0,0.0,0.0,0.0,0.0,0.0,0.0,0.0,0.0
1494527467578898099,55,1494527468064007237,gyro_link,0.0,0.0,0.0,1.0,1.79769313486e+308,0.0,0.0,0.0,1.79769313486e+308,0.0,0.0,0.0,0.05,0.0,0.0,0.0,1.79769313486e+308,0.0,0.0,0.0,1.79769313486e+308,0.0,0.0,0.0,0.05,0.0,0.0,0.0,0.0,0.0,0.0,0.0,0.0,0.0,0.0,0.0,0.0
1494527467600836728,56,1494527468085368163,gyro_link,0.0,0.0,0.0,1.0,1.79769313486e+308,0.0,0.0,0.0,1.79769313486e+308,0.0,0.0,0.0,0.05,0.0,0.0,0.0,1.79769313486e+308,0.0,0.0,0.0,1.79769313486e+308,0.0,0.0,0.0,0.05,0.0,0.0,0.0,0.0,0.0,0.0,0.0,0.0,0.0,0.0,0.0,0.0
1494527467617622981,57,1494527468102839049,gyro_link,0.0,0.0,0.0,1.0,1.79769313486e+308,0.0,0.0,0.0,1.79769313486e+308,0.0,0.0,0.0,0.05,0.0,0.0,0.0,1.79769313486e+308,0.0,0.0,0.0,1.79769313486e+308,0.0,0.0,0.0,0.05,0.0,0.0,0.0,0.0,0.0,0.0,0.0,0.0,0.0,0.0,0.0,0.0
1494527467638207242,58,1494527468122903198,gyro_link,0.0,0.0,0.0,1.0,1.79769313486e+308,0.0,0.0,0.0,1.79769313486e+308,0.0,0.0,0.0,0.05,0.0,0.0,0.0,1.79769313486e+308,0.0,0.0,0.0,1.79769313486e+308,0.0,0.0,0.0,0.05,0.0,0.0,0.0,0.0,0.0,0.0,0.0,0.0,0.0,0.0,0.0,0.0
1494527467658160793,59,1494527468143124886,gyro_link,0.0,0.0,0.0,1.0,1.79769313486e+308,0.0,0.0,0.0,1.79769313486e+308,0.0,0.0,0.0,0.05,0.0,0.0,0.0,1.79769313486e+308,0.0,0.0,0.0,1.79769313486e+308,0.0,0.0,0.0,0.05,0.0,0.0,0.0,0.0,0.0,0.0,0.0,0.0,0.0,0.0,0.0,0.0
1494527467678106518,60,1494527468162988829,gyro_link,0.0,0.0,0.0,1.0,1.79769313486e+308,0.0,0.0,0.0,1.79769313486e+308,0.0,0.0,0.0,0.05,0.0,0.0,0.0,1.79769313486e+308,0.0,0.0,0.0,1.79769313486e+308,0.0,0.0,0.0,0.05,0.0,0.0,0.0,0.0,0.0,0.0,0.0,0.0,0.0,0.0,0.0,0.0
1494527467697367123,61,1494527468182784106,gyro_link,0.0,0.0,0.0,1.0,1.79769313486e+308,0.0,0.0,0.0,1.79769313486e+308,0.0,0.0,0.0,0.05,0.0,0.0,0.0,1.79769313486e+308,0.0,0.0,0.0,1.79769313486e+308,0.0,0.0,0.0,0.05,0.0,0.0,0.0,0.0,0.0,0.0,0.0,0.0,0.0,0.0,0.0,0.0
1494527467716942720,62,1494527468202811255,gyro_link,0.0,0.0,0.0,1.0,1.79769313486e+308,0.0,0.0,0.0,1.79769313486e+308,0.0,0.0,0.0,0.05,0.0,0.0,0.0,1.79769313486e+308,0.0,0.0,0.0,1.79769313486e+308,0.0,0.0,0.0,0.05,0.0,0.0,0.0,0.0,0.0,0.0,0.0,0.0,0.0,0.0,0.0,0.0
1494527467740632995,63,1494527468226304740,gyro_link,0.0,0.0,0.0,1.0,1.79769313486e+308,0.0,0.0,0.0,1.79769313486e+308,0.0,0.0,0.0,0.05,0.0,0.0,0.0,1.79769313486e+308,0.0,0.0,0.0,1.79769313486e+308,0.0,0.0,0.0,0.05,0.0,0.0,0.0,0.0,0.0,0.0,0.0,0.0,0.0,0.0,0.0,0.0
1494527467760287592,64,1494527468242845637,gyro_link,0.0,0.0,0.0,1.0,1.79769313486e+308,0.0,0.0,0.0,1.79769313486e+308,0.0,0.0,0.0,0.05,0.0,0.0,0.0,1.79769313486e+308,0.0,0.0,0.0,1.79769313486e+308,0.0,0.0,0.0,0.05,0.0,0.0,0.0,0.0,0.0,0.0,0.0,0.0,0.0,0.0,0.0,0.0
1494527467777978336,65,1494527468263618486,gyro_link,0.0,0.0,0.0,1.0,1.79769313486e+308,0.0,0.0,0.0,1.79769313486e+308,0.0,0.0,0.0,0.05,0.0,0.0,0.0,1.79769313486e+308,0.0,0.0,0.0,1.79769313486e+308,0.0,0.0,0.0,0.05,0.0,0.0,0.0,0.0,0.0,0.0,0.0,0.0,0.0,0.0,0.0,0.0
1494527467798242736,66,1494527468282993018,gyro_link,0.0,0.0,0.0,1.0,1.79769313486e+308,0.0,0.0,0.0,1.79769313486e+308,0.0,0.0,0.0,0.05,0.0,0.0,0.0,1.79769313486e+308,0.0,0.0,0.0,1.79769313486e+308,0.0,0.0,0.0,0.05,0.0,0.0,0.0,0.0,0.0,0.0,0.0,0.0,0.0,0.0,0.0,0.0
1494527467819340586,67,1494527468302975668,gyro_link,0.0,0.0,0.0,1.0,1.79769313486e+308,0.0,0.0,0.0,1.79769313486e+308,0.0,0.0,0.0,0.05,0.0,0.0,0.0,1.79769313486e+308,0.0,0.0,0.0,1.79769313486e+308,0.0,0.0,0.0,0.05,0.0,0.0,0.0,0.0,0.0,0.0,0.0,0.0,0.0,0.0,0.0,0.0
1494527467841003357,68,1494527468322815402,gyro_link,0.0,0.0,0.0,1.0,1.79769313486e+308,0.0,0.0,0.0,1.79769313486e+308,0.0,0.0,0.0,0.05,0.0,0.0,0.0,1.79769313486e+308,0.0,0.0,0.0,1.79769313486e+308,0.0,0.0,0.0,0.05,0.0,0.0,0.0,0.0,0.0,0.0,0.0,0.0,0.0,0.0,0.0,0.0
1494527467862535019,69,1494527468342997008,gyro_link,0.0,0.0,0.0,1.0,1.79769313486e+308,0.0,0.0,0.0,1.79769313486e+308,0.0,0.0,0.0,0.05,0.0,0.0,0.0,1.79769313486e+308,0.0,0.0,0.0,1.79769313486e+308,0.0,0.0,0.0,0.05,0.0,0.0,0.0,0.0,0.0,0.0,0.0,0.0,0.0,0.0,0.0,0.0
1494527467878640394,70,1494527468362746286,gyro_link,0.0,0.0,0.0,1.0,1.79769313486e+308,0.0,0.0,0.0,1.79769313486e+308,0.0,0.0,0.0,0.05,0.0,0.0,0.0,1.79769313486e+308,0.0,0.0,0.0,1.79769313486e+308,0.0,0.0,0.0,0.05,0.0,0.0,0.0,0.0,0.0,0.0,0.0,0.0,0.0,0.0,0.0,0.0
1494527467898188412,71,1494527468382870184,gyro_link,0.0,0.0,0.0,1.0,1.79769313486e+308,0.0,0.0,0.0,1.79769313486e+308,0.0,0.0,0.0,0.05,0.0,0.0,0.0,1.79769313486e+308,0.0,0.0,0.0,1.79769313486e+308,0.0,0.0,0.0,0.05,0.0,0.0,0.0,0.0,0.0,0.0,0.0,0.0,0.0,0.0,0.0,0.0
1494527467917900923,72,1494527468403018290,gyro_link,0.0,0.0,0.0,1.0,1.79769313486e+308,0.0,0.0,0.0,1.79769313486e+308,0.0,0.0,0.0,0.05,0.0,0.0,0.0,1.79769313486e+308,0.0,0.0,0.0,1.79769313486e+308,0.0,0.0,0.0,0.05,0.0,0.0,0.0,0.0,0.0,0.0,0.0,0.0,0.0,0.0,0.0,0.0
1494527467942143201,73,1494527468422720943,gyro_link,0.0,0.0,0.0,1.0,1.79769313486e+308,0.0,0.0,0.0,1.79769313486e+308,0.0,0.0,0.0,0.05,0.0,0.0,0.0,1.79769313486e+308,0.0,0.0,0.0,1.79769313486e+308,0.0,0.0,0.0,0.05,0.0,0.0,0.0,0.0,0.0,0.0,0.0,0.0,0.0,0.0,0.0,0.0
1494527467958503836,74,1494527468443839121,gyro_link,0.0,0.0,0.0,1.0,1.79769313486e+308,0.0,0.0,0.0,1.79769313486e+308,0.0,0.0,0.0,0.05,0.0,0.0,0.0,1.79769313486e+308,0.0,0.0,0.0,1.79769313486e+308,0.0,0.0,0.0,0.05,0.0,0.0,0.0,0.0,0.0,0.0,0.0,0.0,0.0,0.0,0.0,0.0
1494527467978690192,75,1494527468463734439,gyro_link,0.0,0.0,0.0,1.0,1.79769313486e+308,0.0,0.0,0.0,1.79769313486e+308,0.0,0.0,0.0,0.05,0.0,0.0,0.0,1.79769313486e+308,0.0,0.0,0.0,1.79769313486e+308,0.0,0.0,0.0,0.05,0.0,0.0,0.0,0.0,0.0,0.0,0.0,0.0,0.0,0.0,0.0,0.0
1494527467998876612,76,1494527468483634464,gyro_link,0.0,0.0,0.0,1.0,1.79769313486e+308,0.0,0.0,0.0,1.79769313486e+308,0.0,0.0,0.0,0.05,0.0,0.0,0.0,1.79769313486e+308,0.0,0.0,0.0,1.79769313486e+308,0.0,0.0,0.0,0.05,0.0,0.0,0.0,0.0,0.0,0.0,0.0,0.0,0.0,0.0,0.0,0.0
1494527468018220702,77,1494527468503695655,gyro_link,0.0,0.0,0.0,1.0,1.79769313486e+308,0.0,0.0,0.0,1.79769313486e+308,0.0,0.0,0.0,0.05,0.0,0.0,0.0,1.79769313486e+308,0.0,0.0,0.0,1.79769313486e+308,0.0,0.0,0.0,0.05,0.0,0.0,0.0,0.0,0.0,0.0,0.0,0.0,0.0,0.0,0.0,0.0
1494527468045153995,78,1494527468524246506,gyro_link,0.0,0.0,0.0,1.0,1.79769313486e+308,0.0,0.0,0.0,1.79769313486e+308,0.0,0.0,0.0,0.05,0.0,0.0,0.0,1.79769313486e+308,0.0,0.0,0.0,1.79769313486e+308,0.0,0.0,0.0,0.05,0.0,0.0,0.0,0.0,0.0,0.0,0.0,0.0,0.0,0.0,0.0,0.0
1494527468068163927,79,1494527468544979814,gyro_link,0.0,0.0,0.0,1.0,1.79769313486e+308,0.0,0.0,0.0,1.79769313486e+308,0.0,0.0,0.0,0.05,0.0,0.0,0.0,1.79769313486e+308,0.0,0.0,0.0,1.79769313486e+308,0.0,0.0,0.0,0.05,0.0,0.0,0.0,0.0,0.0,0.0,0.0,0.0,0.0,0.0,0.0,0.0
1494527468082527387,80,1494527468563838893,gyro_link,0.0,0.0,0.0,1.0,1.79769313486e+308,0.0,0.0,0.0,1.79769313486e+308,0.0,0.0,0.0,0.05,0.0,0.0,0.0,1.79769313486e+308,0.0,0.0,0.0,1.79769313486e+308,0.0,0.0,0.0,0.05,0.0,0.0,0.0,0.0,0.0,0.0,0.0,0.0,0.0,0.0,0.0,0.0
1494527468098543118,81,1494527468582742139,gyro_link,0.0,0.0,0.0,1.0,1.79769313486e+308,0.0,0.0,0.0,1.79769313486e+308,0.0,0.0,0.0,0.05,0.0,0.0,0.0,1.79769313486e+308,0.0,0.0,0.0,1.79769313486e+308,0.0,0.0,0.0,0.05,0.0,0.0,0.0,0.0,0.0,0.0,0.0,0.0,0.0,0.0,0.0,0.0
1494527468119270826,82,1494527468603759152,gyro_link,0.0,0.0,0.0,1.0,1.79769313486e+308,0.0,0.0,0.0,1.79769313486e+308,0.0,0.0,0.0,0.05,0.0,0.0,0.0,1.79769313486e+308,0.0,0.0,0.0,1.79769313486e+308,0.0,0.0,0.0,0.05,0.0,0.0,0.0,0.0,0.0,0.0,0.0,0.0,0.0,0.0,0.0,0.0
1494527468147441191,83,1494527468623664677,gyro_link,0.0,0.0,0.0,1.0,1.79769313486e+308,0.0,0.0,0.0,1.79769313486e+308,0.0,0.0,0.0,0.05,0.0,0.0,0.0,1.79769313486e+308,0.0,0.0,0.0,1.79769313486e+308,0.0,0.0,0.0,0.05,0.0,0.0,0.0,0.0,0.0,0.0,0.0,0.0,0.0,0.0,0.0,0.0
1494527468159303052,84,1494527468643765576,gyro_link,0.0,0.0,0.0,1.0,1.79769313486e+308,0.0,0.0,0.0,1.79769313486e+308,0.0,0.0,0.0,0.05,0.0,0.0,0.0,1.79769313486e+308,0.0,0.0,0.0,1.79769313486e+308,0.0,0.0,0.0,0.05,0.0,0.0,0.0,0.0,0.0,0.0,0.0,0.0,0.0,0.0,0.0,0.0
1494527468182666356,85,1494527468665536539,gyro_link,0.0,0.0,0.0,1.0,1.79769313486e+308,0.0,0.0,0.0,1.79769313486e+308,0.0,0.0,0.0,0.05,0.0,0.0,0.0,1.79769313486e+308,0.0,0.0,0.0,1.79769313486e+308,0.0,0.0,0.0,0.05,0.0,0.0,0.0,0.0,0.0,0.0,0.0,0.0,0.0,0.0,0.0,0.0
1494527468204242641,86,1494527468685255650,gyro_link,0.0,0.0,0.0,1.0,1.79769313486e+308,0.0,0.0,0.0,1.79769313486e+308,0.0,0.0,0.0,0.05,0.0,0.0,0.0,1.79769313486e+308,0.0,0.0,0.0,1.79769313486e+308,0.0,0.0,0.0,0.05,0.0,0.0,0.0,0.0,0.0,0.0,0.0,0.0,0.0,0.0,0.0,0.0
1494527468218837974,87,1494527468703866523,gyro_link,0.0,0.0,0.0,1.0,1.79769313486e+308,0.0,0.0,0.0,1.79769313486e+308,0.0,0.0,0.0,0.05,0.0,0.0,0.0,1.79769313486e+308,0.0,0.0,0.0,1.79769313486e+308,0.0,0.0,0.0,0.05,0.0,0.0,0.0,0.0,0.0,0.0,0.0,0.0,0.0,0.0,0.0,0.0
1494527468238351111,88,1494527468723710383,gyro_link,0.0,0.0,0.0,1.0,1.79769313486e+308,0.0,0.0,0.0,1.79769313486e+308,0.0,0.0,0.0,0.05,0.0,0.0,0.0,1.79769313486e+308,0.0,0.0,0.0,1.79769313486e+308,0.0,0.0,0.0,0.05,0.0,0.0,0.0,0.0,0.0,0.0,0.0,0.0,0.0,0.0,0.0,0.0
1494527468257287166,89,1494527468743520701,gyro_link,0.0,0.0,0.0,1.0,1.79769313486e+308,0.0,0.0,0.0,1.79769313486e+308,0.0,0.0,0.0,0.05,0.0,0.0,0.0,1.79769313486e+308,0.0,0.0,0.0,1.79769313486e+308,0.0,0.0,0.0,0.05,0.0,0.0,0.0,0.0,0.0,0.0,0.0,0.0,0.0,0.0,0.0,0.0
1494527468278875989,90,1494527468763720723,gyro_link,0.0,0.0,0.0,1.0,1.79769313486e+308,0.0,0.0,0.0,1.79769313486e+308,0.0,0.0,0.0,0.05,0.0,0.0,0.0,1.79769313486e+308,0.0,0.0,0.0,1.79769313486e+308,0.0,0.0,0.0,0.05,0.0,0.0,0.0,0.0,0.0,0.0,0.0,0.0,0.0,0.0,0.0,0.0
1494527468298398170,91,1494527468783688165,gyro_link,0.0,0.0,0.0,1.0,1.79769313486e+308,0.0,0.0,0.0,1.79769313486e+308,0.0,0.0,0.0,0.05,0.0,0.0,0.0,1.79769313486e+308,0.0,0.0,0.0,1.79769313486e+308,0.0,0.0,0.0,0.05,0.0,0.0,0.0,0.0,0.0,0.0,0.0,0.0,0.0,0.0,0.0,0.0
1494527468321867617,92,1494527468805405545,gyro_link,0.0,0.0,0.0,1.0,1.79769313486e+308,0.0,0.0,0.0,1.79769313486e+308,0.0,0.0,0.0,0.05,0.0,0.0,0.0,1.79769313486e+308,0.0,0.0,0.0,1.79769313486e+308,0.0,0.0,0.0,0.05,0.0,0.0,0.0,0.0,0.0,0.0,0.0,0.0,0.0,0.0,0.0,0.0
1494527468341622245,93,1494527468826183311,gyro_link,0.0,0.0,0.0,1.0,1.79769313486e+308,0.0,0.0,0.0,1.79769313486e+308,0.0,0.0,0.0,0.05,0.0,0.0,0.0,1.79769313486e+308,0.0,0.0,0.0,1.79769313486e+308,0.0,0.0,0.0,0.05,0.0,0.0,0.0,0.0,0.0,0.0,0.0,0.0,0.0,0.0,0.0,0.0
1494527468358747884,94,1494527468843459699,gyro_link,0.0,0.0,0.0,1.0,1.79769313486e+308,0.0,0.0,0.0,1.79769313486e+308,0.0,0.0,0.0,0.05,0.0,0.0,0.0,1.79769313486e+308,0.0,0.0,0.0,1.79769313486e+308,0.0,0.0,0.0,0.05,0.0,0.0,0.0,0.0,0.0,0.0,0.0,0.0,0.0,0.0,0.0,0.0
1494527468378312203,95,1494527468863574473,gyro_link,0.0,0.0,0.0,1.0,1.79769313486e+308,0.0,0.0,0.0,1.79769313486e+308,0.0,0.0,0.0,0.05,0.0,0.0,0.0,1.79769313486e+308,0.0,0.0,0.0,1.79769313486e+308,0.0,0.0,0.0,0.05,0.0,0.0,0.0,0.0,0.0,0.0,0.0,0.0,0.0,0.0,0.0,0.0
1494527468398457041,96,1494527468883963451,gyro_link,0.0,0.0,0.0,1.0,1.79769313486e+308,0.0,0.0,0.0,1.79769313486e+308,0.0,0.0,0.0,0.05,0.0,0.0,0.0,1.79769313486e+308,0.0,0.0,0.0,1.79769313486e+308,0.0,0.0,0.0,0.05,0.0,0.0,0.0,0.0,0.0,0.0,0.0,0.0,0.0,0.0,0.0,0.0
1494527468419003202,97,1494527468903941476,gyro_link,0.0,0.0,0.0,1.0,1.79769313486e+308,0.0,0.0,0.0,1.79769313486e+308,0.0,0.0,0.0,0.05,0.0,0.0,0.0,1.79769313486e+308,0.0,0.0,0.0,1.79769313486e+308,0.0,0.0,0.0,0.05,0.0,0.0,0.0,0.0,0.0,0.0,0.0,0.0,0.0,0.0,0.0,0.0
1494527468438390759,98,1494527468923820627,gyro_link,0.0,0.0,0.0,1.0,1.79769313486e+308,0.0,0.0,0.0,1.79769313486e+308,0.0,0.0,0.0,0.05,0.0,0.0,0.0,1.79769313486e+308,0.0,0.0,0.0,1.79769313486e+308,0.0,0.0,0.0,0.05,0.0,0.0,0.0,0.0,0.0,0.0,0.0,0.0,0.0,0.0,0.0,0.0
1494527468469892593,99,1494527468944016357,gyro_link,0.0,0.0,0.0,1.0,1.79769313486e+308,0.0,0.0,0.0,1.79769313486e+308,0.0,0.0,0.0,0.05,0.0,0.0,0.0,1.79769313486e+308,0.0,0.0,0.0,1.79769313486e+308,0.0,0.0,0.0,0.05,0.0,0.0,0.0,0.0,0.0,0.0,0.0,0.0,0.0,0.0,0.0,0.0
1494527468479028666,100,1494527468963558179,gyro_link,0.0,0.0,0.0,1.0,1.79769313486e+308,0.0,0.0,0.0,1.79769313486e+308,0.0,0.0,0.0,0.05,0.0,0.0,0.0,1.79769313486e+308,0.0,0.0,0.0,1.79769313486e+308,0.0,0.0,0.0,0.05,0.0,0.0,0.0,0.0,0.0,0.0,0.0,0.0,0.0,0.0,0.0,0.0
1494527468499517842,101,1494527468983769284,gyro_link,0.0,0.0,0.0,1.0,1.79769313486e+308,0.0,0.0,0.0,1.79769313486e+308,0.0,0.0,0.0,0.05,0.0,0.0,0.0,1.79769313486e+308,0.0,0.0,0.0,1.79769313486e+308,0.0,0.0,0.0,0.05,0.0,0.0,0.0,0.0,0.0,0.0,0.0,0.0,0.0,0.0,0.0,0.0
1494527468519548724,102,1494527469004579925,gyro_link,0.0,0.0,0.0,1.0,1.79769313486e+308,0.0,0.0,0.0,1.79769313486e+308,0.0,0.0,0.0,0.05,0.0,0.0,0.0,1.79769313486e+308,0.0,0.0,0.0,1.79769313486e+308,0.0,0.0,0.0,0.05,0.0,0.0,0.0,0.0,0.0,0.0,0.0,0.0,0.0,0.0,0.0,0.0
1494527468539867886,103,1494527469024772531,gyro_link,0.0,0.0,0.0,1.0,1.79769313486e+308,0.0,0.0,0.0,1.79769313486e+308,0.0,0.0,0.0,0.05,0.0,0.0,0.0,1.79769313486e+308,0.0,0.0,0.0,1.79769313486e+308,0.0,0.0,0.0,0.05,0.0,0.0,0.0,0.0,0.0,0.0,0.0,0.0,0.0,0.0,0.0,0.0
1494527468559593092,104,1494527469044507642,gyro_link,0.0,0.0,0.0,1.0,1.79769313486e+308,0.0,0.0,0.0,1.79769313486e+308,0.0,0.0,0.0,0.05,0.0,0.0,0.0,1.79769313486e+308,0.0,0.0,0.0,1.79769313486e+308,0.0,0.0,0.0,0.05,0.0,0.0,0.0,0.0,0.0,0.0,0.0,0.0,0.0,0.0,0.0,0.0
1494527468580705371,105,1494527469064774205,gyro_link,0.0,0.0,0.0,1.0,1.79769313486e+308,0.0,0.0,0.0,1.79769313486e+308,0.0,0.0,0.0,0.05,0.0,0.0,0.0,1.79769313486e+308,0.0,0.0,0.0,1.79769313486e+308,0.0,0.0,0.0,0.05,0.0,0.0,0.0,0.0,0.0,0.0,0.0,0.0,0.0,0.0,0.0,0.0
1494527468601134429,106,1494527469085953425,gyro_link,0.0,0.0,0.0,1.0,1.79769313486e+308,0.0,0.0,0.0,1.79769313486e+308,0.0,0.0,0.0,0.05,0.0,0.0,0.0,1.79769313486e+308,0.0,0.0,0.0,1.79769313486e+308,0.0,0.0,0.0,0.05,0.0,0.0,0.0,0.0,0.0,0.0,0.0,0.0,0.0,0.0,0.0,0.0
1494527468619297344,107,1494527469103651101,gyro_link,0.0,0.0,0.0,1.0,1.79769313486e+308,0.0,0.0,0.0,1.79769313486e+308,0.0,0.0,0.0,0.05,0.0,0.0,0.0,1.79769313486e+308,0.0,0.0,0.0,1.79769313486e+308,0.0,0.0,0.0,0.05,0.0,0.0,0.0,0.0,0.0,0.0,0.0,0.0,0.0,0.0,0.0,0.0
1494527468639297801,108,1494527469123688542,gyro_link,0.0,0.0,0.0,1.0,1.79769313486e+308,0.0,0.0,0.0,1.79769313486e+308,0.0,0.0,0.0,0.05,0.0,0.0,0.0,1.79769313486e+308,0.0,0.0,0.0,1.79769313486e+308,0.0,0.0,0.0,0.05,0.0,0.0,0.0,0.0,0.0,0.0,0.0,0.0,0.0,0.0,0.0,0.0
1494527468660210866,109,1494527469143778108,gyro_link,0.0,0.0,0.0,1.0,1.79769313486e+308,0.0,0.0,0.0,1.79769313486e+308,0.0,0.0,0.0,0.05,0.0,0.0,0.0,1.79769313486e+308,0.0,0.0,0.0,1.79769313486e+308,0.0,0.0,0.0,0.05,0.0,0.0,0.0,0.0,0.0,0.0,0.0,0.0,0.0,0.0,0.0,0.0
1494527468681085943,110,1494527469163954339,gyro_link,0.0,0.0,0.0,1.0,1.79769313486e+308,0.0,0.0,0.0,1.79769313486e+308,0.0,0.0,0.0,0.05,0.0,0.0,0.0,1.79769313486e+308,0.0,0.0,0.0,1.79769313486e+308,0.0,0.0,0.0,0.05,0.0,0.0,0.0,0.0,0.0,0.0,0.0,0.0,0.0,0.0,0.0,0.0
1494527468698877619,111,1494527469183542827,gyro_link,0.0,0.0,0.0,1.0,1.79769313486e+308,0.0,0.0,0.0,1.79769313486e+308,0.0,0.0,0.0,0.05,0.0,0.0,0.0,1.79769313486e+308,0.0,0.0,0.0,1.79769313486e+308,0.0,0.0,0.0,0.05,0.0,0.0,0.0,0.0,0.0,0.0,0.0,0.0,0.0,0.0,0.0,0.0
1494527468720133927,112,1494527469204768213,gyro_link,0.0,0.0,0.0,1.0,1.79769313486e+308,0.0,0.0,0.0,1.79769313486e+308,0.0,0.0,0.0,0.05,0.0,0.0,0.0,1.79769313486e+308,0.0,0.0,0.0,1.79769313486e+308,0.0,0.0,0.0,0.05,0.0,0.0,0.0,0.0,0.0,0.0,0.0,0.0,0.0,0.0,0.0,0.0
1494527468739489006,113,1494527469224718946,gyro_link,0.0,0.0,0.0,1.0,1.79769313486e+308,0.0,0.0,0.0,1.79769313486e+308,0.0,0.0,0.0,0.05,0.0,0.0,0.0,1.79769313486e+308,0.0,0.0,0.0,1.79769313486e+308,0.0,0.0,0.0,0.05,0.0,0.0,0.0,0.0,0.0,0.0,0.0,0.0,0.0,0.0,0.0,0.0
1494527468760046329,114,1494527469244451558,gyro_link,0.0,0.0,0.0,1.0,1.79769313486e+308,0.0,0.0,0.0,1.79769313486e+308,0.0,0.0,0.0,0.05,0.0,0.0,0.0,1.79769313486e+308,0.0,0.0,0.0,1.79769313486e+308,0.0,0.0,0.0,0.05,0.0,0.0,0.0,0.0,0.0,0.0,0.0,0.0,0.0,0.0,0.0,0.0
1494527468783671765,115,1494527469265122200,gyro_link,0.0,0.0,0.0,1.0,1.79769313486e+308,0.0,0.0,0.0,1.79769313486e+308,0.0,0.0,0.0,0.05,0.0,0.0,0.0,1.79769313486e+308,0.0,0.0,0.0,1.79769313486e+308,0.0,0.0,0.0,0.05,0.0,0.0,0.0,0.0,0.0,0.0,0.0,0.0,0.0,0.0,0.0,0.0
1494527468802437757,116,1494527469285537262,gyro_link,0.0,0.0,0.0,1.0,1.79769313486e+308,0.0,0.0,0.0,1.79769313486e+308,0.0,0.0,0.0,0.05,0.0,0.0,0.0,1.79769313486e+308,0.0,0.0,0.0,1.79769313486e+308,0.0,0.0,0.0,0.05,0.0,0.0,0.0,0.0,0.0,0.0,0.0,0.0,0.0,0.0,0.0,0.0
1494527468820294871,117,1494527469304781920,gyro_link,0.0,0.0,0.0,1.0,1.79769313486e+308,0.0,0.0,0.0,1.79769313486e+308,0.0,0.0,0.0,0.05,0.0,0.0,0.0,1.79769313486e+308,0.0,0.0,0.0,1.79769313486e+308,0.0,0.0,0.0,0.05,0.0,0.0,0.0,0.0,0.0,0.0,0.0,0.0,0.0,0.0,0.0,0.0
1494527468839911928,118,1494527469324454282,gyro_link,0.0,0.0,0.0,1.0,1.79769313486e+308,0.0,0.0,0.0,1.79769313486e+308,0.0,0.0,0.0,0.05,0.0,0.0,0.0,1.79769313486e+308,0.0,0.0,0.0,1.79769313486e+308,0.0,0.0,0.0,0.05,0.0,0.0,0.0,0.0,0.0,0.0,0.0,0.0,0.0,0.0,0.0,0.0
1494527468863454128,119,1494527469344680221,gyro_link,0.0,0.0,0.0,1.0,1.79769313486e+308,0.0,0.0,0.0,1.79769313486e+308,0.0,0.0,0.0,0.05,0.0,0.0,0.0,1.79769313486e+308,0.0,0.0,0.0,1.79769313486e+308,0.0,0.0,0.0,0.05,0.0,0.0,0.0,0.0,0.0,0.0,0.0,0.0,0.0,0.0,0.0,0.0
1494527468879197862,120,1494527469364496165,gyro_link,0.0,0.0,0.0,1.0,1.79769313486e+308,0.0,0.0,0.0,1.79769313486e+308,0.0,0.0,0.0,0.05,0.0,0.0,0.0,1.79769313486e+308,0.0,0.0,0.0,1.79769313486e+308,0.0,0.0,0.0,0.05,0.0,0.0,0.0,0.0,0.0,0.0,0.0,0.0,0.0,0.0,0.0,0.0
1494527468902563697,121,1494527469386261753,gyro_link,0.0,0.0,0.0,1.0,1.79769313486e+308,0.0,0.0,0.0,1.79769313486e+308,0.0,0.0,0.0,0.05,0.0,0.0,0.0,1.79769313486e+308,0.0,0.0,0.0,1.79769313486e+308,0.0,0.0,0.0,0.05,0.0,0.0,0.0,0.0,0.0,0.0,0.0,0.0,0.0,0.0,0.0,0.0
1494527468920811336,122,1494527469404513047,gyro_link,0.0,0.0,0.0,1.0,1.79769313486e+308,0.0,0.0,0.0,1.79769313486e+308,0.0,0.0,0.0,0.05,0.0,0.0,0.0,1.79769313486e+308,0.0,0.0,0.0,1.79769313486e+308,0.0,0.0,0.0,0.05,0.0,0.0,0.0,0.0,0.0,0.0,0.0,0.0,0.0,0.0,0.0,0.0
1494527468939229700,123,1494527469424470198,gyro_link,0.0,0.0,0.0,1.0,1.79769313486e+308,0.0,0.0,0.0,1.79769313486e+308,0.0,0.0,0.0,0.05,0.0,0.0,0.0,1.79769313486e+308,0.0,0.0,0.0,1.79769313486e+308,0.0,0.0,0.0,0.05,0.0,0.0,0.0,0.0,0.0,0.0,0.0,0.0,0.0,0.0,0.0,0.0
1494527468965549108,124,1494527469444484556,gyro_link,0.0,0.0,0.0,1.0,1.79769313486e+308,0.0,0.0,0.0,1.79769313486e+308,0.0,0.0,0.0,0.05,0.0,0.0,0.0,1.79769313486e+308,0.0,0.0,0.0,1.79769313486e+308,0.0,0.0,0.0,0.05,0.0,0.0,0.0,0.0,0.0,0.0,0.0,0.0,0.0,0.0,0.0,0.0
1494527468979462526,125,1494527469464583371,gyro_link,0.0,0.0,0.0,1.0,1.79769313486e+308,0.0,0.0,0.0,1.79769313486e+308,0.0,0.0,0.0,0.05,0.0,0.0,0.0,1.79769313486e+308,0.0,0.0,0.0,1.79769313486e+308,0.0,0.0,0.0,0.05,0.0,0.0,0.0,0.0,0.0,0.0,0.0,0.0,0.0,0.0,0.0,0.0
1494527468998903090,126,1494527469484623896,gyro_link,0.0,0.0,0.0,1.0,1.79769313486e+308,0.0,0.0,0.0,1.79769313486e+308,0.0,0.0,0.0,0.05,0.0,0.0,0.0,1.79769313486e+308,0.0,0.0,0.0,1.79769313486e+308,0.0,0.0,0.0,0.05,0.0,0.0,0.0,0.0,0.0,0.0,0.0,0.0,0.0,0.0,0.0,0.0
1494527469024050745,127,1494527469506419400,gyro_link,0.0,0.0,0.0,1.0,1.79769313486e+308,0.0,0.0,0.0,1.79769313486e+308,0.0,0.0,0.0,0.05,0.0,0.0,0.0,1.79769313486e+308,0.0,0.0,0.0,1.79769313486e+308,0.0,0.0,0.0,0.05,0.0,0.0,0.0,0.0,0.0,0.0,0.0,0.0,0.0,0.0,0.0,0.0
1494527469040407123,128,1494527469524351365,gyro_link,0.0,0.0,0.0,1.0,1.79769313486e+308,0.0,0.0,0.0,1.79769313486e+308,0.0,0.0,0.0,0.05,0.0,0.0,0.0,1.79769313486e+308,0.0,0.0,0.0,1.79769313486e+308,0.0,0.0,0.0,0.05,0.0,0.0,0.0,0.0,0.0,0.0,0.0,0.0,0.0,0.0,0.0,0.0
1494527469058403829,129,1494527469544511763,gyro_link,0.0,0.0,0.0,1.0,1.79769313486e+308,0.0,0.0,0.0,1.79769313486e+308,0.0,0.0,0.0,0.05,0.0,0.0,0.0,1.79769313486e+308,0.0,0.0,0.0,1.79769313486e+308,0.0,0.0,0.0,0.05,0.0,0.0,0.0,0.0,0.0,0.0,0.0,0.0,0.0,0.0,0.0,0.0
1494527469080616483,130,1494527469565516568,gyro_link,0.0,0.0,0.0,1.0,1.79769313486e+308,0.0,0.0,0.0,1.79769313486e+308,0.0,0.0,0.0,0.05,0.0,0.0,0.0,1.79769313486e+308,0.0,0.0,0.0,1.79769313486e+308,0.0,0.0,0.0,0.05,0.0,0.0,0.0,0.0,0.0,0.0,0.0,0.0,0.0,0.0,0.0,0.0
1494527469101905143,131,1494527469584404814,gyro_link,0.0,0.0,0.0,1.0,1.79769313486e+308,0.0,0.0,0.0,1.79769313486e+308,0.0,0.0,0.0,0.05,0.0,0.0,0.0,1.79769313486e+308,0.0,0.0,0.0,1.79769313486e+308,0.0,0.0,0.0,0.05,0.0,0.0,0.0,0.0,0.0,0.0,0.0,0.0,0.0,0.0,0.0,0.0
1494527469119385541,132,1494527469604461963,gyro_link,0.0,0.0,0.0,1.0,1.79769313486e+308,0.0,0.0,0.0,1.79769313486e+308,0.0,0.0,0.0,0.05,0.0,0.0,0.0,1.79769313486e+308,0.0,0.0,0.0,1.79769313486e+308,0.0,0.0,0.0,0.05,0.0,0.0,0.0,0.0,0.0,0.0,0.0,0.0,0.0,0.0,0.0,0.0
1494527469152307423,133,1494527469627119916,gyro_link,0.0,0.0,0.0,1.0,1.79769313486e+308,0.0,0.0,0.0,1.79769313486e+308,0.0,0.0,0.0,0.05,0.0,0.0,0.0,1.79769313486e+308,0.0,0.0,0.0,1.79769313486e+308,0.0,0.0,0.0,0.05,0.0,0.0,0.0,0.0,0.0,0.0,0.0,0.0,0.0,0.0,0.0,0.0
1494527469160901877,134,1494527469645725249,gyro_link,0.0,0.0,0.0,1.0,1.79769313486e+308,0.0,0.0,0.0,1.79769313486e+308,0.0,0.0,0.0,0.05,0.0,0.0,0.0,1.79769313486e+308,0.0,0.0,0.0,1.79769313486e+308,0.0,0.0,0.0,0.05,0.0,0.0,0.0,0.0,0.0,0.0,0.0,0.0,0.0,0.0,0.0,0.0
1494527469182029072,135,1494527469664659744,gyro_link,0.0,0.0,0.0,1.0,1.79769313486e+308,0.0,0.0,0.0,1.79769313486e+308,0.0,0.0,0.0,0.05,0.0,0.0,0.0,1.79769313486e+308,0.0,0.0,0.0,1.79769313486e+308,0.0,0.0,0.0,0.05,0.0,0.0,0.0,0.0,0.0,0.0,0.0,0.0,0.0,0.0,0.0,0.0
1494527469199277613,136,1494527469684445188,gyro_link,0.0,0.0,0.0,1.0,1.79769313486e+308,0.0,0.0,0.0,1.79769313486e+308,0.0,0.0,0.0,0.05,0.0,0.0,0.0,1.79769313486e+308,0.0,0.0,0.0,1.79769313486e+308,0.0,0.0,0.0,0.05,0.0,0.0,0.0,0.0,0.0,0.0,0.0,0.0,0.0,0.0,0.0,0.0
1494527469219338312,137,1494527469704417629,gyro_link,0.0,0.0,0.0,1.0,1.79769313486e+308,0.0,0.0,0.0,1.79769313486e+308,0.0,0.0,0.0,0.05,0.0,0.0,0.0,1.79769313486e+308,0.0,0.0,0.0,1.79769313486e+308,0.0,0.0,0.0,0.05,0.0,0.0,0.0,0.0,0.0,0.0,0.0,0.0,0.0,0.0,0.0,0.0
1494527469246674979,138,1494527469726107469,gyro_link,0.0,0.0,0.0,1.0,1.79769313486e+308,0.0,0.0,0.0,1.79769313486e+308,0.0,0.0,0.0,0.05,0.0,0.0,0.0,1.79769313486e+308,0.0,0.0,0.0,1.79769313486e+308,0.0,0.0,0.0,0.05,0.0,0.0,0.0,0.0,0.0,0.0,0.0,0.0,0.0,0.0,0.0,0.0
1494527469273093172,139,1494527469746358116,gyro_link,0.0,0.0,0.0,1.0,1.79769313486e+308,0.0,0.0,0.0,1.79769313486e+308,0.0,0.0,0.0,0.05,0.0,0.0,0.0,1.79769313486e+308,0.0,0.0,0.0,1.79769313486e+308,0.0,0.0,0.0,0.05,0.0,0.0,0.0,0.0,0.0,0.0,0.0,0.0,0.0,0.0,0.0,0.0
1494527469279974273,140,1494527469765479400,gyro_link,0.0,0.0,0.0,1.0,1.79769313486e+308,0.0,0.0,0.0,1.79769313486e+308,0.0,0.0,0.0,0.05,0.0,0.0,0.0,1.79769313486e+308,0.0,0.0,0.0,1.79769313486e+308,0.0,0.0,0.0,0.05,0.0,0.0,0.0,0.0,0.0,0.0,0.0,0.0,0.0,0.0,0.0,0.0
1494527469300572126,141,1494527469785825046,gyro_link,0.0,0.0,0.0,1.0,1.79769313486e+308,0.0,0.0,0.0,1.79769313486e+308,0.0,0.0,0.0,0.05,0.0,0.0,0.0,1.79769313486e+308,0.0,0.0,0.0,1.79769313486e+308,0.0,0.0,0.0,0.05,0.0,0.0,0.0,0.0,0.0,0.0,0.0,0.0,0.0,0.0,0.0,0.0
1494527469320072590,142,1494527469805256453,gyro_link,0.0,0.0,0.0,1.0,1.79769313486e+308,0.0,0.0,0.0,1.79769313486e+308,0.0,0.0,0.0,0.05,0.0,0.0,0.0,1.79769313486e+308,0.0,0.0,0.0,1.79769313486e+308,0.0,0.0,0.0,0.05,0.0,0.0,0.0,0.0,0.0,0.0,0.0,0.0,0.0,0.0,0.0,0.0
1494527469341040266,143,1494527469825550224,gyro_link,0.0,0.0,0.0,1.0,1.79769313486e+308,0.0,0.0,0.0,1.79769313486e+308,0.0,0.0,0.0,0.05,0.0,0.0,0.0,1.79769313486e+308,0.0,0.0,0.0,1.79769313486e+308,0.0,0.0,0.0,0.05,0.0,0.0,0.0,0.0,0.0,0.0,0.0,0.0,0.0,0.0,0.0,0.0
1494527469362740505,144,1494527469845699289,gyro_link,0.0,0.0,0.0,1.0,1.79769313486e+308,0.0,0.0,0.0,1.79769313486e+308,0.0,0.0,0.0,0.05,0.0,0.0,0.0,1.79769313486e+308,0.0,0.0,0.0,1.79769313486e+308,0.0,0.0,0.0,0.05,0.0,0.0,0.0,0.0,0.0,0.0,0.0,0.0,0.0,0.0,0.0,0.0
1494527469386451073,145,1494527469866696719,gyro_link,0.0,0.0,0.0,1.0,1.79769313486e+308,0.0,0.0,0.0,1.79769313486e+308,0.0,0.0,0.0,0.05,0.0,0.0,0.0,1.79769313486e+308,0.0,0.0,0.0,1.79769313486e+308,0.0,0.0,0.0,0.05,0.0,0.0,0.0,0.0,0.0,0.0,0.0,0.0,0.0,0.0,0.0,0.0
1494527469402296102,146,1494527469886548121,gyro_link,0.0,0.0,0.0,1.0,1.79769313486e+308,0.0,0.0,0.0,1.79769313486e+308,0.0,0.0,0.0,0.05,0.0,0.0,0.0,1.79769313486e+308,0.0,0.0,0.0,1.79769313486e+308,0.0,0.0,0.0,0.05,0.0,0.0,0.0,0.0,0.0,0.0,0.0,0.0,0.0,0.0,0.0,0.0
1494527469421789042,147,1494527469906184108,gyro_link,0.0,0.0,0.0,1.0,1.79769313486e+308,0.0,0.0,0.0,1.79769313486e+308,0.0,0.0,0.0,0.05,0.0,0.0,0.0,1.79769313486e+308,0.0,0.0,0.0,1.79769313486e+308,0.0,0.0,0.0,0.05,0.0,0.0,0.0,0.0,0.0,0.0,0.0,0.0,0.0,0.0,0.0,0.0
1494527469440873607,148,1494527469925499849,gyro_link,0.0,0.0,0.0,1.0,1.79769313486e+308,0.0,0.0,0.0,1.79769313486e+308,0.0,0.0,0.0,0.05,0.0,0.0,0.0,1.79769313486e+308,0.0,0.0,0.0,1.79769313486e+308,0.0,0.0,0.0,0.05,0.0,0.0,0.0,0.0,0.0,0.0,0.0,0.0,0.0,0.0,0.0,0.0
1494527469463866647,149,1494527469947622225,gyro_link,0.0,0.0,0.0,1.0,1.79769313486e+308,0.0,0.0,0.0,1.79769313486e+308,0.0,0.0,0.0,0.05,0.0,0.0,0.0,1.79769313486e+308,0.0,0.0,0.0,1.79769313486e+308,0.0,0.0,0.0,0.05,0.0,0.0,0.0,0.0,0.0,0.0,0.0,0.0,0.0,0.0,0.0,0.0
1494527469481064279,150,1494527469965411650,gyro_link,0.0,0.0,0.0,1.0,1.79769313486e+308,0.0,0.0,0.0,1.79769313486e+308,0.0,0.0,0.0,0.05,0.0,0.0,0.0,1.79769313486e+308,0.0,0.0,0.0,1.79769313486e+308,0.0,0.0,0.0,0.05,0.0,0.0,0.0,0.0,0.0,0.0,0.0,0.0,0.0,0.0,0.0,0.0
1494527469500904009,151,1494527469985719879,gyro_link,0.0,0.0,0.0,1.0,1.79769313486e+308,0.0,0.0,0.0,1.79769313486e+308,0.0,0.0,0.0,0.05,0.0,0.0,0.0,1.79769313486e+308,0.0,0.0,0.0,1.79769313486e+308,0.0,0.0,0.0,0.05,0.0,0.0,0.0,0.0,0.0,0.0,0.0,0.0,0.0,0.0,0.0,0.0
1494527469521195066,152,1494527470005449532,gyro_link,0.0,0.0,0.0,1.0,1.79769313486e+308,0.0,0.0,0.0,1.79769313486e+308,0.0,0.0,0.0,0.05,0.0,0.0,0.0,1.79769313486e+308,0.0,0.0,0.0,1.79769313486e+308,0.0,0.0,0.0,0.05,0.0,0.0,0.0,0.0,0.0,0.0,0.0,0.0,0.0,0.0,0.0,0.0
1494527469544215415,153,1494527470025589764,gyro_link,0.0,0.0,0.0,1.0,1.79769313486e+308,0.0,0.0,0.0,1.79769313486e+308,0.0,0.0,0.0,0.05,0.0,0.0,0.0,1.79769313486e+308,0.0,0.0,0.0,1.79769313486e+308,0.0,0.0,0.0,0.05,0.0,0.0,0.0,0.0,0.0,0.0,0.0,0.0,0.0,0.0,0.0,0.0
1494527469563095282,154,1494527470046092742,gyro_link,0.0,0.0,0.0,1.0,1.79769313486e+308,0.0,0.0,0.0,1.79769313486e+308,0.0,0.0,0.0,0.05,0.0,0.0,0.0,1.79769313486e+308,0.0,0.0,0.0,1.79769313486e+308,0.0,0.0,0.0,0.05,0.0,0.0,0.0,0.0,0.0,0.0,0.0,0.0,0.0,0.0,0.0,0.0
1494527469580324645,155,1494527470065510940,gyro_link,0.0,0.0,0.0,1.0,1.79769313486e+308,0.0,0.0,0.0,1.79769313486e+308,0.0,0.0,0.0,0.05,0.0,0.0,0.0,1.79769313486e+308,0.0,0.0,0.0,1.79769313486e+308,0.0,0.0,0.0,0.05,0.0,0.0,0.0,0.0,0.0,0.0,0.0,0.0,0.0,0.0,0.0,0.0
1494527469605954725,156,1494527470085493382,gyro_link,0.0,0.0,0.0,1.0,1.79769313486e+308,0.0,0.0,0.0,1.79769313486e+308,0.0,0.0,0.0,0.05,0.0,0.0,0.0,1.79769313486e+308,0.0,0.0,0.0,1.79769313486e+308,0.0,0.0,0.0,0.05,0.0,0.0,0.0,0.0,0.0,0.0,0.0,0.0,0.0,0.0,0.0,0.0
1494527469635699096,157,1494527470105708947,gyro_link,0.0,0.0,0.0,1.0,1.79769313486e+308,0.0,0.0,0.0,1.79769313486e+308,0.0,0.0,0.0,0.05,0.0,0.0,0.0,1.79769313486e+308,0.0,0.0,0.0,1.79769313486e+308,0.0,0.0,0.0,0.05,0.0,0.0,0.0,0.0,0.0,0.0,0.0,0.0,0.0,0.0,0.0,0.0
1494527469640483927,158,1494527470125677514,gyro_link,0.0,0.0,0.0,1.0,1.79769313486e+308,0.0,0.0,0.0,1.79769313486e+308,0.0,0.0,0.0,0.05,0.0,0.0,0.0,1.79769313486e+308,0.0,0.0,0.0,1.79769313486e+308,0.0,0.0,0.0,0.05,0.0,0.0,0.0,0.0,0.0,0.0,0.0,0.0,0.0,0.0,0.0,0.0
1494527469664665757,159,1494527470147349062,gyro_link,0.0,0.0,0.0,1.0,1.79769313486e+308,0.0,0.0,0.0,1.79769313486e+308,0.0,0.0,0.0,0.05,0.0,0.0,0.0,1.79769313486e+308,0.0,0.0,0.0,1.79769313486e+308,0.0,0.0,0.0,0.05,0.0,0.0,0.0,0.0,0.0,0.0,0.0,0.0,0.0,0.0,0.0,0.0
1494527469682541739,160,1494527470165823771,gyro_link,0.0,0.0,0.0,1.0,1.79769313486e+308,0.0,0.0,0.0,1.79769313486e+308,0.0,0.0,0.0,0.05,0.0,0.0,0.0,1.79769313486e+308,0.0,0.0,0.0,1.79769313486e+308,0.0,0.0,0.0,0.05,0.0,0.0,0.0,0.0,0.0,0.0,0.0,0.0,0.0,0.0,0.0,0.0
1494527469700412412,161,1494527470185564674,gyro_link,0.0,0.0,0.0,1.0,1.79769313486e+308,0.0,0.0,0.0,1.79769313486e+308,0.0,0.0,0.0,0.05,0.0,0.0,0.0,1.79769313486e+308,0.0,0.0,0.0,1.79769313486e+308,0.0,0.0,0.0,0.05,0.0,0.0,0.0,0.0,0.0,0.0,0.0,0.0,0.0,0.0,0.0,0.0
1494527469720170869,162,1494527470205359035,gyro_link,0.0,0.0,0.0,1.0,1.79769313486e+308,0.0,0.0,0.0,1.79769313486e+308,0.0,0.0,0.0,0.05,0.0,0.0,0.0,1.79769313486e+308,0.0,0.0,0.0,1.79769313486e+308,0.0,0.0,0.0,0.05,0.0,0.0,0.0,0.0,0.0,0.0,0.0,0.0,0.0,0.0,0.0,0.0
1494527469740089854,163,1494527470225294561,gyro_link,0.0,0.0,0.0,1.0,1.79769313486e+308,0.0,0.0,0.0,1.79769313486e+308,0.0,0.0,0.0,0.05,0.0,0.0,0.0,1.79769313486e+308,0.0,0.0,0.0,1.79769313486e+308,0.0,0.0,0.0,0.05,0.0,0.0,0.0,0.0,0.0,0.0,0.0,0.0,0.0,0.0,0.0,0.0
1494527469759517441,164,1494527470245403127,gyro_link,0.0,0.0,0.0,1.0,1.79769313486e+308,0.0,0.0,0.0,1.79769313486e+308,0.0,0.0,0.0,0.05,0.0,0.0,0.0,1.79769313486e+308,0.0,0.0,0.0,1.79769313486e+308,0.0,0.0,0.0,0.05,0.0,0.0,0.0,0.0,0.0,0.0,0.0,0.0,0.0,0.0,0.0,0.0
1494527469783732998,165,1494527470265357069,gyro_link,0.0,0.0,0.0,1.0,1.79769313486e+308,0.0,0.0,0.0,1.79769313486e+308,0.0,0.0,0.0,0.05,0.0,0.0,0.0,1.79769313486e+308,0.0,0.0,0.0,1.79769313486e+308,0.0,0.0,0.0,0.05,0.0,0.0,0.0,0.0,0.0,0.0,0.0,0.0,0.0,0.0,0.0,0.0
1494527469799907100,166,1494527470285421968,gyro_link,0.0,0.0,0.0,1.0,1.79769313486e+308,0.0,0.0,0.0,1.79769313486e+308,0.0,0.0,0.0,0.05,0.0,0.0,0.0,1.79769313486e+308,0.0,0.0,0.0,1.79769313486e+308,0.0,0.0,0.0,0.05,0.0,0.0,0.0,0.0,0.0,0.0,0.0,0.0,0.0,0.0,0.0,0.0
1494527469820325617,167,1494527470305376994,gyro_link,0.0,0.0,0.0,1.0,1.79769313486e+308,0.0,0.0,0.0,1.79769313486e+308,0.0,0.0,0.0,0.05,0.0,0.0,0.0,1.79769313486e+308,0.0,0.0,0.0,1.79769313486e+308,0.0,0.0,0.0,0.05,0.0,0.0,0.0,0.0,0.0,0.0,0.0,0.0,0.0,0.0,0.0,0.0
1494527469842052596,168,1494527470326519215,gyro_link,0.0,0.0,0.0,1.0,1.79769313486e+308,0.0,0.0,0.0,1.79769313486e+308,0.0,0.0,0.0,0.05,0.0,0.0,0.0,1.79769313486e+308,0.0,0.0,0.0,1.79769313486e+308,0.0,0.0,0.0,0.05,0.0,0.0,0.0,0.0,0.0,0.0,0.0,0.0,0.0,0.0,0.0,0.0
1494527469862967855,169,1494527470347190232,gyro_link,0.0,0.0,0.0,1.0,1.79769313486e+308,0.0,0.0,0.0,1.79769313486e+308,0.0,0.0,0.0,0.05,0.0,0.0,0.0,1.79769313486e+308,0.0,0.0,0.0,1.79769313486e+308,0.0,0.0,0.0,0.05,0.0,0.0,0.0,0.0,0.0,0.0,0.0,0.0,0.0,0.0,0.0,0.0
1494527469887701013,170,1494527470367511337,gyro_link,0.0,0.0,0.0,1.0,1.79769313486e+308,0.0,0.0,0.0,1.79769313486e+308,0.0,0.0,0.0,0.05,0.0,0.0,0.0,1.79769313486e+308,0.0,0.0,0.0,1.79769313486e+308,0.0,0.0,0.0,0.05,0.0,0.0,0.0,0.0,0.0,0.0,0.0,0.0,0.0,0.0,0.0,0.0
1494527469900804154,171,1494527470386296168,gyro_link,0.0,0.0,0.0,1.0,1.79769313486e+308,0.0,0.0,0.0,1.79769313486e+308,0.0,0.0,0.0,0.05,0.0,0.0,0.0,1.79769313486e+308,0.0,0.0,0.0,1.79769313486e+308,0.0,0.0,0.0,0.05,0.0,0.0,0.0,0.0,0.0,0.0,0.0,0.0,0.0,0.0,0.0,0.0
1494527469922491826,172,1494527470406263610,gyro_link,0.0,0.0,0.0,1.0,1.79769313486e+308,0.0,0.0,0.0,1.79769313486e+308,0.0,0.0,0.0,0.05,0.0,0.0,0.0,1.79769313486e+308,0.0,0.0,0.0,1.79769313486e+308,0.0,0.0,0.0,0.05,0.0,0.0,0.0,0.0,0.0,0.0,0.0,0.0,0.0,0.0,0.0,0.0
1494527469940336559,173,1494527470425422228,gyro_link,0.0,0.0,0.0,1.0,1.79769313486e+308,0.0,0.0,0.0,1.79769313486e+308,0.0,0.0,0.0,0.05,0.0,0.0,0.0,1.79769313486e+308,0.0,0.0,0.0,1.79769313486e+308,0.0,0.0,0.0,0.05,0.0,0.0,0.0,0.0,0.0,0.0,0.0,0.0,0.0,0.0,0.0,0.0
1494527469960494833,174,1494527470445593043,gyro_link,0.0,0.0,0.0,1.0,1.79769313486e+308,0.0,0.0,0.0,1.79769313486e+308,0.0,0.0,0.0,0.05,0.0,0.0,0.0,1.79769313486e+308,0.0,0.0,0.0,1.79769313486e+308,0.0,0.0,0.0,0.05,0.0,0.0,0.0,0.0,0.0,0.0,0.0,0.0,0.0,0.0,0.0,0.0
1494527469989164929,175,1494527470468530993,gyro_link,0.0,0.0,0.0,1.0,1.79769313486e+308,0.0,0.0,0.0,1.79769313486e+308,0.0,0.0,0.0,0.05,0.0,0.0,0.0,1.79769313486e+308,0.0,0.0,0.0,1.79769313486e+308,0.0,0.0,0.0,0.05,0.0,0.0,0.0,0.0,0.0,0.0,0.0,0.0,0.0,0.0,0.0,0.0
1494527470004198711,176,1494527470487114743,gyro_link,0.0,0.0,0.0,1.0,1.79769313486e+308,0.0,0.0,0.0,1.79769313486e+308,0.0,0.0,0.0,0.05,0.0,0.0,0.0,1.79769313486e+308,0.0,0.0,0.0,1.79769313486e+308,0.0,0.0,0.0,0.05,0.0,0.0,0.0,0.0,0.0,0.0,0.0,0.0,0.0,0.0,0.0,0.0
1494527470131921632,177,1494527470506170487,gyro_link,0.0,0.0,0.0,1.0,1.79769313486e+308,0.0,0.0,0.0,1.79769313486e+308,0.0,0.0,0.0,0.05,0.0,0.0,0.0,1.79769313486e+308,0.0,0.0,0.0,1.79769313486e+308,0.0,0.0,0.0,0.05,0.0,0.0,0.0,0.0,0.0,0.0,0.0,0.0,0.0,0.0,0.0,0.0
1494527470131935628,178,1494527470526275719,gyro_link,0.0,0.0,0.0,1.0,1.79769313486e+308,0.0,0.0,0.0,1.79769313486e+308,0.0,0.0,0.0,0.05,0.0,0.0,0.0,1.79769313486e+308,0.0,0.0,0.0,1.79769313486e+308,0.0,0.0,0.0,0.05,0.0,0.0,0.0,0.0,0.0,0.0,0.0,0.0,0.0,0.0,0.0,0.0
1494527470131943103,179,1494527470546261369,gyro_link,0.0,0.0,0.0,1.0,1.79769313486e+308,0.0,0.0,0.0,1.79769313486e+308,0.0,0.0,0.0,0.05,0.0,0.0,0.0,1.79769313486e+308,0.0,0.0,0.0,1.79769313486e+308,0.0,0.0,0.0,0.05,0.0,0.0,0.0,0.0,0.0,0.0,0.0,0.0,0.0,0.0,0.0,0.0
1494527470131956359,180,1494527470566148312,gyro_link,0.0,0.0,0.0,1.0,1.79769313486e+308,0.0,0.0,0.0,1.79769313486e+308,0.0,0.0,0.0,0.05,0.0,0.0,0.0,1.79769313486e+308,0.0,0.0,0.0,1.79769313486e+308,0.0,0.0,0.0,0.05,0.0,0.0,0.0,0.0,0.0,0.0,0.0,0.0,0.0,0.0,0.0,0.0
1494527470131974012,181,1494527470586256545,gyro_link,0.0,0.0,0.0,1.0,1.79769313486e+308,0.0,0.0,0.0,1.79769313486e+308,0.0,0.0,0.0,0.05,0.0,0.0,0.0,1.79769313486e+308,0.0,0.0,0.0,1.79769313486e+308,0.0,0.0,0.0,0.05,0.0,0.0,0.0,0.0,0.0,0.0,0.0,0.0,0.0,0.0,0.0,0.0
1494527470135098391,182,1494527470606948396,gyro_link,0.0,0.0,0.0,1.0,1.79769313486e+308,0.0,0.0,0.0,1.79769313486e+308,0.0,0.0,0.0,0.05,0.0,0.0,0.0,1.79769313486e+308,0.0,0.0,0.0,1.79769313486e+308,0.0,0.0,0.0,0.05,0.0,0.0,0.0,0.0,0.0,0.0,0.0,0.0,0.0,0.0,0.0,0.0
1494527470144537392,183,1494527470627171418,gyro_link,0.0,0.0,0.0,1.0,1.79769313486e+308,0.0,0.0,0.0,1.79769313486e+308,0.0,0.0,0.0,0.05,0.0,0.0,0.0,1.79769313486e+308,0.0,0.0,0.0,1.79769313486e+308,0.0,0.0,0.0,0.05,0.0,0.0,0.0,0.0,0.0,0.0,0.0,0.0,0.0,0.0,0.0,0.0
1494527470163699562,184,1494527470646796781,gyro_link,0.0,0.0,0.0,1.0,1.79769313486e+308,0.0,0.0,0.0,1.79769313486e+308,0.0,0.0,0.0,0.05,0.0,0.0,0.0,1.79769313486e+308,0.0,0.0,0.0,1.79769313486e+308,0.0,0.0,0.0,0.05,0.0,0.0,0.0,0.0,0.0,0.0,0.0,0.0,0.0,0.0,0.0,0.0
1494527470182021557,185,1494527470666814223,gyro_link,0.0,0.0,0.0,1.0,1.79769313486e+308,0.0,0.0,0.0,1.79769313486e+308,0.0,0.0,0.0,0.05,0.0,0.0,0.0,1.79769313486e+308,0.0,0.0,0.0,1.79769313486e+308,0.0,0.0,0.0,0.05,0.0,0.0,0.0,0.0,0.0,0.0,0.0,0.0,0.0,0.0,0.0,0.0
1494527470206968019,186,1494527470690458082,gyro_link,0.0,0.0,0.0,1.0,1.79769313486e+308,0.0,0.0,0.0,1.79769313486e+308,0.0,0.0,0.0,0.05,0.0,0.0,0.0,1.79769313486e+308,0.0,0.0,0.0,1.79769313486e+308,0.0,0.0,0.0,0.05,0.0,0.0,0.0,0.0,0.0,0.0,0.0,0.0,0.0,0.0,0.0,0.0
1494527470223704096,187,1494527470707968343,gyro_link,0.0,0.0,0.0,1.0,1.79769313486e+308,0.0,0.0,0.0,1.79769313486e+308,0.0,0.0,0.0,0.05,0.0,0.0,0.0,1.79769313486e+308,0.0,0.0,0.0,1.79769313486e+308,0.0,0.0,0.0,0.05,0.0,0.0,0.0,0.0,0.0,0.0,0.0,0.0,0.0,0.0,0.0,0.0
1494527470241910346,188,1494527470726091389,gyro_link,0.0,0.0,0.0,1.0,1.79769313486e+308,0.0,0.0,0.0,1.79769313486e+308,0.0,0.0,0.0,0.05,0.0,0.0,0.0,1.79769313486e+308,0.0,0.0,0.0,1.79769313486e+308,0.0,0.0,0.0,0.05,0.0,0.0,0.0,0.0,0.0,0.0,0.0,0.0,0.0,0.0,0.0,0.0
1494527470261772298,189,1494527470746193872,gyro_link,0.0,0.0,0.0,1.0,1.79769313486e+308,0.0,0.0,0.0,1.79769313486e+308,0.0,0.0,0.0,0.05,0.0,0.0,0.0,1.79769313486e+308,0.0,0.0,0.0,1.79769313486e+308,0.0,0.0,0.0,0.05,0.0,0.0,0.0,0.0,0.0,0.0,0.0,0.0,0.0,0.0,0.0,0.0
1494527470280056144,190,1494527470766179397,gyro_link,0.0,0.0,0.0,1.0,1.79769313486e+308,0.0,0.0,0.0,1.79769313486e+308,0.0,0.0,0.0,0.05,0.0,0.0,0.0,1.79769313486e+308,0.0,0.0,0.0,1.79769313486e+308,0.0,0.0,0.0,0.05,0.0,0.0,0.0,0.0,0.0,0.0,0.0,0.0,0.0,0.0,0.0,0.0
1494527470302275789,191,1494527470786297004,gyro_link,0.0,0.0,0.0,1.0,1.79769313486e+308,0.0,0.0,0.0,1.79769313486e+308,0.0,0.0,0.0,0.05,0.0,0.0,0.0,1.79769313486e+308,0.0,0.0,0.0,1.79769313486e+308,0.0,0.0,0.0,0.05,0.0,0.0,0.0,0.0,0.0,0.0,0.0,0.0,0.0,0.0,0.0,0.0
1494527470330755756,192,1494527470809500993,gyro_link,0.0,0.0,0.0,1.0,1.79769313486e+308,0.0,0.0,0.0,1.79769313486e+308,0.0,0.0,0.0,0.05,0.0,0.0,0.0,1.79769313486e+308,0.0,0.0,0.0,1.79769313486e+308,0.0,0.0,0.0,0.05,0.0,0.0,0.0,0.0,0.0,0.0,0.0,0.0,0.0,0.0,0.0,0.0
1494527470348084901,193,1494527470827877204,gyro_link,0.0,0.0,0.0,1.0,1.79769313486e+308,0.0,0.0,0.0,1.79769313486e+308,0.0,0.0,0.0,0.05,0.0,0.0,0.0,1.79769313486e+308,0.0,0.0,0.0,1.79769313486e+308,0.0,0.0,0.0,0.05,0.0,0.0,0.0,0.0,0.0,0.0,0.0,0.0,0.0,0.0,0.0,0.0
1494527470371415416,194,1494527470848079810,gyro_link,0.0,0.0,0.0,1.0,1.79769313486e+308,0.0,0.0,0.0,1.79769313486e+308,0.0,0.0,0.0,0.05,0.0,0.0,0.0,1.79769313486e+308,0.0,0.0,0.0,1.79769313486e+308,0.0,0.0,0.0,0.05,0.0,0.0,0.0,0.0,0.0,0.0,0.0,0.0,0.0,0.0,0.0,0.0
1494527470388874008,195,1494527470868784327,gyro_link,0.0,0.0,0.0,1.0,1.79769313486e+308,0.0,0.0,0.0,1.79769313486e+308,0.0,0.0,0.0,0.05,0.0,0.0,0.0,1.79769313486e+308,0.0,0.0,0.0,1.79769313486e+308,0.0,0.0,0.0,0.05,0.0,0.0,0.0,0.0,0.0,0.0,0.0,0.0,0.0,0.0,0.0,0.0
1494527470409058964,196,1494527470891372531,gyro_link,0.0,0.0,0.0,1.0,1.79769313486e+308,0.0,0.0,0.0,1.79769313486e+308,0.0,0.0,0.0,0.05,0.0,0.0,0.0,1.79769313486e+308,0.0,0.0,0.0,1.79769313486e+308,0.0,0.0,0.0,0.05,0.0,0.0,0.0,0.0,0.0,0.0,0.0,0.0,0.0,0.0,0.0,0.0
1494527470422599089,197,1494527470907215895,gyro_link,0.0,0.0,0.0,1.0,1.79769313486e+308,0.0,0.0,0.0,1.79769313486e+308,0.0,0.0,0.0,0.05,0.0,0.0,0.0,1.79769313486e+308,0.0,0.0,0.0,1.79769313486e+308,0.0,0.0,0.0,0.05,0.0,0.0,0.0,0.0,0.0,0.0,0.0,0.0,0.0,0.0,0.0,0.0
1494527470442707465,198,1494527470927202337,gyro_link,0.0,0.0,0.0,1.0,1.79769313486e+308,0.0,0.0,0.0,1.79769313486e+308,0.0,0.0,0.0,0.05,0.0,0.0,0.0,1.79769313486e+308,0.0,0.0,0.0,1.79769313486e+308,0.0,0.0,0.0,0.05,0.0,0.0,0.0,0.0,0.0,0.0,0.0,0.0,0.0,0.0,0.0,0.0
1494527470463036923,199,1494527470946953740,gyro_link,0.0,0.0,0.0,1.0,1.79769313486e+308,0.0,0.0,0.0,1.79769313486e+308,0.0,0.0,0.0,0.05,0.0,0.0,0.0,1.79769313486e+308,0.0,0.0,0.0,1.79769313486e+308,0.0,0.0,0.0,0.05,0.0,0.0,0.0,0.0,0.0,0.0,0.0,0.0,0.0,0.0,0.0,0.0
1494527470481781187,200,1494527470967013848,gyro_link,0.0,0.0,0.0,1.0,1.79769313486e+308,0.0,0.0,0.0,1.79769313486e+308,0.0,0.0,0.0,0.05,0.0,0.0,0.0,1.79769313486e+308,0.0,0.0,0.0,1.79769313486e+308,0.0,0.0,0.0,0.05,0.0,0.0,0.0,0.0,0.0,0.0,0.0,0.0,0.0,0.0,0.0,0.0
1494527470508042140,201,1494527470990008048,gyro_link,0.0,0.0,0.0,1.0,1.79769313486e+308,0.0,0.0,0.0,1.79769313486e+308,0.0,0.0,0.0,0.05,0.0,0.0,0.0,1.79769313486e+308,0.0,0.0,0.0,1.79769313486e+308,0.0,0.0,0.0,0.05,0.0,0.0,0.0,0.0,0.0,0.0,0.0,0.0,0.0,0.0,0.0,0.0
1494527470520779541,202,1494527471006153866,gyro_link,0.0,0.0,0.0,1.0,1.79769313486e+308,0.0,0.0,0.0,1.79769313486e+308,0.0,0.0,0.0,0.05,0.0,0.0,0.0,1.79769313486e+308,0.0,0.0,0.0,1.79769313486e+308,0.0,0.0,0.0,0.05,0.0,0.0,0.0,0.0,0.0,0.0,0.0,0.0,0.0,0.0,0.0,0.0
1494527470541316003,203,1494527471026168225,gyro_link,0.0,0.0,0.0,1.0,1.79769313486e+308,0.0,0.0,0.0,1.79769313486e+308,0.0,0.0,0.0,0.05,0.0,0.0,0.0,1.79769313486e+308,0.0,0.0,0.0,1.79769313486e+308,0.0,0.0,0.0,0.05,0.0,0.0,0.0,0.0,0.0,0.0,0.0,0.0,0.0,0.0,0.0,0.0
1494527470560861268,204,1494527471046072293,gyro_link,0.0,0.0,0.0,1.0,1.79769313486e+308,0.0,0.0,0.0,1.79769313486e+308,0.0,0.0,0.0,0.05,0.0,0.0,0.0,1.79769313486e+308,0.0,0.0,0.0,1.79769313486e+308,0.0,0.0,0.0,0.05,0.0,0.0,0.0,0.0,0.0,0.0,0.0,0.0,0.0,0.0,0.0,0.0
1494527470579996192,205,1494527471066148984,gyro_link,0.0,0.0,0.0,1.0,1.79769313486e+308,0.0,0.0,0.0,1.79769313486e+308,0.0,0.0,0.0,0.05,0.0,0.0,0.0,1.79769313486e+308,0.0,0.0,0.0,1.79769313486e+308,0.0,0.0,0.0,0.05,0.0,0.0,0.0,0.0,0.0,0.0,0.0,0.0,0.0,0.0,0.0,0.0
1494527470603901909,206,1494527471087070625,gyro_link,0.0,0.0,0.0,1.0,1.79769313486e+308,0.0,0.0,0.0,1.79769313486e+308,0.0,0.0,0.0,0.05,0.0,0.0,0.0,1.79769313486e+308,0.0,0.0,0.0,1.79769313486e+308,0.0,0.0,0.0,0.05,0.0,0.0,0.0,0.0,0.0,0.0,0.0,0.0,0.0,0.0,0.0,0.0
1494527470627052853,207,1494527471107603519,gyro_link,0.0,0.0,0.0,1.0,1.79769313486e+308,0.0,0.0,0.0,1.79769313486e+308,0.0,0.0,0.0,0.05,0.0,0.0,0.0,1.79769313486e+308,0.0,0.0,0.0,1.79769313486e+308,0.0,0.0,0.0,0.05,0.0,0.0,0.0,0.0,0.0,0.0,0.0,0.0,0.0,0.0,0.0,0.0
1494527470643032482,208,1494527471127754126,gyro_link,0.0,0.0,0.0,1.0,1.79769313486e+308,0.0,0.0,0.0,1.79769313486e+308,0.0,0.0,0.0,0.05,0.0,0.0,0.0,1.79769313486e+308,0.0,0.0,0.0,1.79769313486e+308,0.0,0.0,0.0,0.05,0.0,0.0,0.0,0.0,0.0,0.0,0.0,0.0,0.0,0.0,0.0,0.0
1494527470661846150,209,1494527471147094076,gyro_link,0.0,0.0,0.0,1.0,1.79769313486e+308,0.0,0.0,0.0,1.79769313486e+308,0.0,0.0,0.0,0.05,0.0,0.0,0.0,1.79769313486e+308,0.0,0.0,0.0,1.79769313486e+308,0.0,0.0,0.0,0.05,0.0,0.0,0.0,0.0,0.0,0.0,0.0,0.0,0.0,0.0,0.0,0.0
1494527470682919854,210,1494527471167152726,gyro_link,0.0,0.0,0.0,1.0,1.79769313486e+308,0.0,0.0,0.0,1.79769313486e+308,0.0,0.0,0.0,0.05,0.0,0.0,0.0,1.79769313486e+308,0.0,0.0,0.0,1.79769313486e+308,0.0,0.0,0.0,0.05,0.0,0.0,0.0,0.0,0.0,0.0,0.0,0.0,0.0,0.0,0.0,0.0
1494527470707496928,211,1494527471187162251,gyro_link,0.0,0.0,0.0,1.0,1.79769313486e+308,0.0,0.0,0.0,1.79769313486e+308,0.0,0.0,0.0,0.05,0.0,0.0,0.0,1.79769313486e+308,0.0,0.0,0.0,1.79769313486e+308,0.0,0.0,0.0,0.05,0.0,0.0,0.0,0.0,0.0,0.0,0.0,0.0,0.0,0.0,0.0,0.0
1494527470827911054,212,1494527471207552105,gyro_link,0.0,0.0,0.0,1.0,1.79769313486e+308,0.0,0.0,0.0,1.79769313486e+308,0.0,0.0,0.0,0.05,0.0,0.0,0.0,1.79769313486e+308,0.0,0.0,0.0,1.79769313486e+308,0.0,0.0,0.0,0.05,0.0,0.0,0.0,0.0,0.0,0.0,0.0,0.0,0.0,0.0,0.0,0.0
1494527470827931471,213,1494527471228293456,gyro_link,0.0,0.0,0.0,1.0,1.79769313486e+308,0.0,0.0,0.0,1.79769313486e+308,0.0,0.0,0.0,0.05,0.0,0.0,0.0,1.79769313486e+308,0.0,0.0,0.0,1.79769313486e+308,0.0,0.0,0.0,0.05,0.0,0.0,0.0,0.0,0.0,0.0,0.0,0.0,0.0,0.0,0.0,0.0
1494527470827941365,214,1494527471247239368,gyro_link,0.0,0.0,0.0,1.0,1.79769313486e+308,0.0,0.0,0.0,1.79769313486e+308,0.0,0.0,0.0,0.05,0.0,0.0,0.0,1.79769313486e+308,0.0,0.0,0.0,1.79769313486e+308,0.0,0.0,0.0,0.05,0.0,0.0,0.0,0.0,0.0,0.0,0.0,0.0,0.0,0.0,0.0,0.0
1494527470827950749,215,1494527471268352340,gyro_link,0.0,0.0,0.0,1.0,1.79769313486e+308,0.0,0.0,0.0,1.79769313486e+308,0.0,0.0,0.0,0.05,0.0,0.0,0.0,1.79769313486e+308,0.0,0.0,0.0,1.79769313486e+308,0.0,0.0,0.0,0.05,0.0,0.0,0.0,0.0,0.0,0.0,0.0,0.0,0.0,0.0,0.0,0.0
1494527470827989074,216,1494527471287470167,gyro_link,0.0,0.0,0.0,1.0,1.79769313486e+308,0.0,0.0,0.0,1.79769313486e+308,0.0,0.0,0.0,0.05,0.0,0.0,0.0,1.79769313486e+308,0.0,0.0,0.0,1.79769313486e+308,0.0,0.0,0.0,0.05,0.0,0.0,0.0,0.0,0.0,0.0,0.0,0.0,0.0,0.0,0.0,0.0
1494527470834620262,217,1494527471306907657,gyro_link,0.0,0.0,0.0,1.0,1.79769313486e+308,0.0,0.0,0.0,1.79769313486e+308,0.0,0.0,0.0,0.05,0.0,0.0,0.0,1.79769313486e+308,0.0,0.0,0.0,1.79769313486e+308,0.0,0.0,0.0,0.05,0.0,0.0,0.0,0.0,0.0,0.0,0.0,0.0,0.0,0.0,0.0,0.0
1494527470844345332,218,1494527471327024431,gyro_link,0.0,0.0,0.0,1.0,1.79769313486e+308,0.0,0.0,0.0,1.79769313486e+308,0.0,0.0,0.0,0.05,0.0,0.0,0.0,1.79769313486e+308,0.0,0.0,0.0,1.79769313486e+308,0.0,0.0,0.0,0.05,0.0,0.0,0.0,0.0,0.0,0.0,0.0,0.0,0.0,0.0,0.0,0.0
1494527470860797369,219,1494527471347098122,gyro_link,0.0,0.0,0.0,1.0,1.79769313486e+308,0.0,0.0,0.0,1.79769313486e+308,0.0,0.0,0.0,0.05,0.0,0.0,0.0,1.79769313486e+308,0.0,0.0,0.0,1.79769313486e+308,0.0,0.0,0.0,0.05,0.0,0.0,0.0,0.0,0.0,0.0,0.0,0.0,0.0,0.0,0.0,0.0
1494527470881192004,220,1494527471367017565,gyro_link,0.0,0.0,0.0,1.0,1.79769313486e+308,0.0,0.0,0.0,1.79769313486e+308,0.0,0.0,0.0,0.05,0.0,0.0,0.0,1.79769313486e+308,0.0,0.0,0.0,1.79769313486e+308,0.0,0.0,0.0,0.05,0.0,0.0,0.0,0.0,0.0,0.0,0.0,0.0,0.0,0.0,0.0,0.0
1494527470900583581,221,1494527471386987758,gyro_link,0.0,0.0,0.0,1.0,1.79769313486e+308,0.0,0.0,0.0,1.79769313486e+308,0.0,0.0,0.0,0.05,0.0,0.0,0.0,1.79769313486e+308,0.0,0.0,0.0,1.79769313486e+308,0.0,0.0,0.0,0.05,0.0,0.0,0.0,0.0,0.0,0.0,0.0,0.0,0.0,0.0,0.0,0.0
1494527470920832214,222,1494527471406938742,gyro_link,0.0,0.0,0.0,1.0,1.79769313486e+308,0.0,0.0,0.0,1.79769313486e+308,0.0,0.0,0.0,0.05,0.0,0.0,0.0,1.79769313486e+308,0.0,0.0,0.0,1.79769313486e+308,0.0,0.0,0.0,0.05,0.0,0.0,0.0,0.0,0.0,0.0,0.0,0.0,0.0,0.0,0.0,0.0
1494527470943463205,223,1494527471427399929,gyro_link,0.0,0.0,0.0,1.0,1.79769313486e+308,0.0,0.0,0.0,1.79769313486e+308,0.0,0.0,0.0,0.05,0.0,0.0,0.0,1.79769313486e+308,0.0,0.0,0.0,1.79769313486e+308,0.0,0.0,0.0,0.05,0.0,0.0,0.0,0.0,0.0,0.0,0.0,0.0,0.0,0.0,0.0,0.0
1494527470963376051,224,1494527471447961282,gyro_link,0.0,0.0,0.0,1.0,1.79769313486e+308,0.0,0.0,0.0,1.79769313486e+308,0.0,0.0,0.0,0.05,0.0,0.0,0.0,1.79769313486e+308,0.0,0.0,0.0,1.79769313486e+308,0.0,0.0,0.0,0.05,0.0,0.0,0.0,0.0,0.0,0.0,0.0,0.0,0.0,0.0,0.0,0.0
1494527470984350790,225,1494527471467000110,gyro_link,0.0,0.0,0.0,1.0,1.79769313486e+308,0.0,0.0,0.0,1.79769313486e+308,0.0,0.0,0.0,0.05,0.0,0.0,0.0,1.79769313486e+308,0.0,0.0,0.0,1.79769313486e+308,0.0,0.0,0.0,0.05,0.0,0.0,0.0,0.0,0.0,0.0,0.0,0.0,0.0,0.0,0.0,0.0
1494527471006495286,226,1494527471491293754,gyro_link,0.0,0.0,0.0,1.0,1.79769313486e+308,0.0,0.0,0.0,1.79769313486e+308,0.0,0.0,0.0,0.05,0.0,0.0,0.0,1.79769313486e+308,0.0,0.0,0.0,1.79769313486e+308,0.0,0.0,0.0,0.05,0.0,0.0,0.0,0.0,0.0,0.0,0.0,0.0,0.0,0.0,0.0,0.0
1494527471021317143,227,1494527471507051285,gyro_link,0.0,0.0,0.0,1.0,1.79769313486e+308,0.0,0.0,0.0,1.79769313486e+308,0.0,0.0,0.0,0.05,0.0,0.0,0.0,1.79769313486e+308,0.0,0.0,0.0,1.79769313486e+308,0.0,0.0,0.0,0.05,0.0,0.0,0.0,0.0,0.0,0.0,0.0,0.0,0.0,0.0,0.0,0.0
1494527471041193360,228,1494527471527275516,gyro_link,0.0,0.0,0.0,1.0,1.79769313486e+308,0.0,0.0,0.0,1.79769313486e+308,0.0,0.0,0.0,0.05,0.0,0.0,0.0,1.79769313486e+308,0.0,0.0,0.0,1.79769313486e+308,0.0,0.0,0.0,0.05,0.0,0.0,0.0,0.0,0.0,0.0,0.0,0.0,0.0,0.0,0.0,0.0
1494527471064860589,229,1494527471548855024,gyro_link,0.0,0.0,0.0,1.0,1.79769313486e+308,0.0,0.0,0.0,1.79769313486e+308,0.0,0.0,0.0,0.05,0.0,0.0,0.0,1.79769313486e+308,0.0,0.0,0.0,1.79769313486e+308,0.0,0.0,0.0,0.05,0.0,0.0,0.0,0.0,0.0,0.0,0.0,0.0,0.0,0.0,0.0,0.0
1494527471081046597,230,1494527471566918780,gyro_link,0.0,0.0,0.0,1.0,1.79769313486e+308,0.0,0.0,0.0,1.79769313486e+308,0.0,0.0,0.0,0.05,0.0,0.0,0.0,1.79769313486e+308,0.0,0.0,0.0,1.79769313486e+308,0.0,0.0,0.0,0.05,0.0,0.0,0.0,0.0,0.0,0.0,0.0,0.0,0.0,0.0,0.0,0.0
1494527471101029521,231,1494527471587028471,gyro_link,0.0,0.0,0.0,1.0,1.79769313486e+308,0.0,0.0,0.0,1.79769313486e+308,0.0,0.0,0.0,0.05,0.0,0.0,0.0,1.79769313486e+308,0.0,0.0,0.0,1.79769313486e+308,0.0,0.0,0.0,0.05,0.0,0.0,0.0,0.0,0.0,0.0,0.0,0.0,0.0,0.0,0.0,0.0
1494527471121108231,232,1494527471606960205,gyro_link,0.0,0.0,0.0,1.0,1.79769313486e+308,0.0,0.0,0.0,1.79769313486e+308,0.0,0.0,0.0,0.05,0.0,0.0,0.0,1.79769313486e+308,0.0,0.0,0.0,1.79769313486e+308,0.0,0.0,0.0,0.05,0.0,0.0,0.0,0.0,0.0,0.0,0.0,0.0,0.0,0.0,0.0,0.0
1494527471142171131,233,1494527471626961314,gyro_link,0.0,0.0,0.0,1.0,1.79769313486e+308,0.0,0.0,0.0,1.79769313486e+308,0.0,0.0,0.0,0.05,0.0,0.0,0.0,1.79769313486e+308,0.0,0.0,0.0,1.79769313486e+308,0.0,0.0,0.0,0.05,0.0,0.0,0.0,0.0,0.0,0.0,0.0,0.0,0.0,0.0,0.0,0.0
1494527471164835737,234,1494527471649195606,gyro_link,0.0,0.0,0.0,1.0,1.79769313486e+308,0.0,0.0,0.0,1.79769313486e+308,0.0,0.0,0.0,0.05,0.0,0.0,0.0,1.79769313486e+308,0.0,0.0,0.0,1.79769313486e+308,0.0,0.0,0.0,0.05,0.0,0.0,0.0,0.0,0.0,0.0,0.0,0.0,0.0,0.0,0.0,0.0
1494527471184884481,235,1494527471667891938,gyro_link,0.0,0.0,0.0,1.0,1.79769313486e+308,0.0,0.0,0.0,1.79769313486e+308,0.0,0.0,0.0,0.05,0.0,0.0,0.0,1.79769313486e+308,0.0,0.0,0.0,1.79769313486e+308,0.0,0.0,0.0,0.05,0.0,0.0,0.0,0.0,0.0,0.0,0.0,0.0,0.0,0.0,0.0,0.0
1494527471203128772,236,1494527471688079419,gyro_link,0.0,0.0,0.0,1.0,1.79769313486e+308,0.0,0.0,0.0,1.79769313486e+308,0.0,0.0,0.0,0.05,0.0,0.0,0.0,1.79769313486e+308,0.0,0.0,0.0,1.79769313486e+308,0.0,0.0,0.0,0.05,0.0,0.0,0.0,0.0,0.0,0.0,0.0,0.0,0.0,0.0,0.0,0.0
1494527471224965533,237,1494527471707863447,gyro_link,0.0,0.0,0.0,1.0,1.79769313486e+308,0.0,0.0,0.0,1.79769313486e+308,0.0,0.0,0.0,0.05,0.0,0.0,0.0,1.79769313486e+308,0.0,0.0,0.0,1.79769313486e+308,0.0,0.0,0.0,0.05,0.0,0.0,0.0,0.0,0.0,0.0,0.0,0.0,0.0,0.0,0.0,0.0
1494527471242665226,238,1494527471727831057,gyro_link,0.0,0.0,0.0,1.0,1.79769313486e+308,0.0,0.0,0.0,1.79769313486e+308,0.0,0.0,0.0,0.05,0.0,0.0,0.0,1.79769313486e+308,0.0,0.0,0.0,1.79769313486e+308,0.0,0.0,0.0,0.05,0.0,0.0,0.0,0.0,0.0,0.0,0.0,0.0,0.0,0.0,0.0,0.0
1494527471264999978,239,1494527471748787405,gyro_link,0.0,0.0,0.0,1.0,1.79769313486e+308,0.0,0.0,0.0,1.79769313486e+308,0.0,0.0,0.0,0.05,0.0,0.0,0.0,1.79769313486e+308,0.0,0.0,0.0,1.79769313486e+308,0.0,0.0,0.0,0.05,0.0,0.0,0.0,0.0,0.0,0.0,0.0,0.0,0.0,0.0,0.0,0.0
1494527471284184410,240,1494527471768655598,gyro_link,0.0,0.0,0.0,1.0,1.79769313486e+308,0.0,0.0,0.0,1.79769313486e+308,0.0,0.0,0.0,0.05,0.0,0.0,0.0,1.79769313486e+308,0.0,0.0,0.0,1.79769313486e+308,0.0,0.0,0.0,0.05,0.0,0.0,0.0,0.0,0.0,0.0,0.0,0.0,0.0,0.0,0.0,0.0
1494527471304482600,241,1494527471788850913,gyro_link,0.0,0.0,0.0,1.0,1.79769313486e+308,0.0,0.0,0.0,1.79769313486e+308,0.0,0.0,0.0,0.05,0.0,0.0,0.0,1.79769313486e+308,0.0,0.0,0.0,1.79769313486e+308,0.0,0.0,0.0,0.05,0.0,0.0,0.0,0.0,0.0,0.0,0.0,0.0,0.0,0.0,0.0,0.0
1494527471326088510,242,1494527471809001604,gyro_link,0.0,0.0,0.0,1.0,1.79769313486e+308,0.0,0.0,0.0,1.79769313486e+308,0.0,0.0,0.0,0.05,0.0,0.0,0.0,1.79769313486e+308,0.0,0.0,0.0,1.79769313486e+308,0.0,0.0,0.0,0.05,0.0,0.0,0.0,0.0,0.0,0.0,0.0,0.0,0.0,0.0,0.0,0.0
1494527471349774073,243,1494527471831823973,gyro_link,0.0,0.0,0.0,1.0,1.79769313486e+308,0.0,0.0,0.0,1.79769313486e+308,0.0,0.0,0.0,0.05,0.0,0.0,0.0,1.79769313486e+308,0.0,0.0,0.0,1.79769313486e+308,0.0,0.0,0.0,0.05,0.0,0.0,0.0,0.0,0.0,0.0,0.0,0.0,0.0,0.0,0.0,0.0
1494527471374763053,244,1494527471856049451,gyro_link,0.0,0.0,0.0,1.0,1.79769313486e+308,0.0,0.0,0.0,1.79769313486e+308,0.0,0.0,0.0,0.05,0.0,0.0,0.0,1.79769313486e+308,0.0,0.0,0.0,1.79769313486e+308,0.0,0.0,0.0,0.05,0.0,0.0,0.0,0.0,0.0,0.0,0.0,0.0,0.0,0.0,0.0,0.0
1494527471384220943,245,1494527471868029108,gyro_link,0.0,0.0,0.0,1.0,1.79769313486e+308,0.0,0.0,0.0,1.79769313486e+308,0.0,0.0,0.0,0.05,0.0,0.0,0.0,1.79769313486e+308,0.0,0.0,0.0,1.79769313486e+308,0.0,0.0,0.0,0.05,0.0,0.0,0.0,0.0,0.0,0.0,0.0,0.0,0.0,0.0,0.0,0.0
1494527471405712347,246,1494527471887971342,gyro_link,0.0,0.0,0.0,1.0,1.79769313486e+308,0.0,0.0,0.0,1.79769313486e+308,0.0,0.0,0.0,0.05,0.0,0.0,0.0,1.79769313486e+308,0.0,0.0,0.0,1.79769313486e+308,0.0,0.0,0.0,0.05,0.0,0.0,0.0,0.0,0.0,0.0,0.0,0.0,0.0,0.0,0.0,0.0
1494527471422184330,247,1494527471907816453,gyro_link,0.0,0.0,0.0,1.0,1.79769313486e+308,0.0,0.0,0.0,1.79769313486e+308,0.0,0.0,0.0,0.05,0.0,0.0,0.0,1.79769313486e+308,0.0,0.0,0.0,1.79769313486e+308,0.0,0.0,0.0,0.05,0.0,0.0,0.0,0.0,0.0,0.0,0.0,0.0,0.0,0.0,0.0,0.0
1494527471443202420,248,1494527471927857436,gyro_link,0.0,0.0,0.0,1.0,1.79769313486e+308,0.0,0.0,0.0,1.79769313486e+308,0.0,0.0,0.0,0.05,0.0,0.0,0.0,1.79769313486e+308,0.0,0.0,0.0,1.79769313486e+308,0.0,0.0,0.0,0.05,0.0,0.0,0.0,0.0,0.0,0.0,0.0,0.0,0.0,0.0,0.0,0.0
1494527471467274573,249,1494527471948023210,gyro_link,0.0,0.0,0.0,1.0,1.79769313486e+308,0.0,0.0,0.0,1.79769313486e+308,0.0,0.0,0.0,0.05,0.0,0.0,0.0,1.79769313486e+308,0.0,0.0,0.0,1.79769313486e+308,0.0,0.0,0.0,0.05,0.0,0.0,0.0,0.0,0.0,0.0,0.0,0.0,0.0,0.0,0.0,0.0
1494527471483054573,250,1494527471967793530,gyro_link,0.0,0.0,0.0,1.0,1.79769313486e+308,0.0,0.0,0.0,1.79769313486e+308,0.0,0.0,0.0,0.05,0.0,0.0,0.0,1.79769313486e+308,0.0,0.0,0.0,1.79769313486e+308,0.0,0.0,0.0,0.05,0.0,0.0,0.0,0.0,0.0,0.0,0.0,0.0,0.0,0.0,0.0,0.0
1494527471513067909,251,1494527471997597778,gyro_link,0.0,0.0,0.0,1.0,1.79769313486e+308,0.0,0.0,0.0,1.79769313486e+308,0.0,0.0,0.0,0.05,0.0,0.0,0.0,1.79769313486e+308,0.0,0.0,0.0,1.79769313486e+308,0.0,0.0,0.0,0.05,0.0,0.0,0.0,0.0,0.0,0.0,0.0,0.0,0.0,0.0,0.0,0.0
1494527471526474211,252,1494527472008776070,gyro_link,0.0,0.0,0.0,1.0,1.79769313486e+308,0.0,0.0,0.0,1.79769313486e+308,0.0,0.0,0.0,0.05,0.0,0.0,0.0,1.79769313486e+308,0.0,0.0,0.0,1.79769313486e+308,0.0,0.0,0.0,0.05,0.0,0.0,0.0,0.0,0.0,0.0,0.0,0.0,0.0,0.0,0.0,0.0
1494527471542107639,253,1494527472027885647,gyro_link,0.0,0.0,0.0,1.0,1.79769313486e+308,0.0,0.0,0.0,1.79769313486e+308,0.0,0.0,0.0,0.05,0.0,0.0,0.0,1.79769313486e+308,0.0,0.0,0.0,1.79769313486e+308,0.0,0.0,0.0,0.05,0.0,0.0,0.0,0.0,0.0,0.0,0.0,0.0,0.0,0.0,0.0,0.0
1494527471562168290,254,1494527472047730300,gyro_link,0.0,0.0,0.0,1.0,1.79769313486e+308,0.0,0.0,0.0,1.79769313486e+308,0.0,0.0,0.0,0.05,0.0,0.0,0.0,1.79769313486e+308,0.0,0.0,0.0,1.79769313486e+308,0.0,0.0,0.0,0.05,0.0,0.0,0.0,0.0,0.0,0.0,0.0,0.0,0.0,0.0,0.0,0.0
1494527471582127248,255,1494527472067842616,gyro_link,0.0,0.0,0.0,1.0,1.79769313486e+308,0.0,0.0,0.0,1.79769313486e+308,0.0,0.0,0.0,0.05,0.0,0.0,0.0,1.79769313486e+308,0.0,0.0,0.0,1.79769313486e+308,0.0,0.0,0.0,0.05,0.0,0.0,0.0,0.0,0.0,0.0,0.0,0.0,0.0,0.0,0.0,0.0
1494527471602614590,256,1494527472087722143,gyro_link,0.0,0.0,0.0,1.0,1.79769313486e+308,0.0,0.0,0.0,1.79769313486e+308,0.0,0.0,0.0,0.05,0.0,0.0,0.0,1.79769313486e+308,0.0,0.0,0.0,1.79769313486e+308,0.0,0.0,0.0,0.05,0.0,0.0,0.0,0.0,0.0,0.0,0.0,0.0,0.0,0.0,0.0,0.0
1494527471621536204,257,1494527472107581670,gyro_link,0.0,0.0,0.0,1.0,1.79769313486e+308,0.0,0.0,0.0,1.79769313486e+308,0.0,0.0,0.0,0.05,0.0,0.0,0.0,1.79769313486e+308,0.0,0.0,0.0,1.79769313486e+308,0.0,0.0,0.0,0.05,0.0,0.0,0.0,0.0,0.0,0.0,0.0,0.0,0.0,0.0,0.0,0.0
1494527471641989759,258,1494527472127745569,gyro_link,0.0,0.0,0.0,1.0,1.79769313486e+308,0.0,0.0,0.0,1.79769313486e+308,0.0,0.0,0.0,0.05,0.0,0.0,0.0,1.79769313486e+308,0.0,0.0,0.0,1.79769313486e+308,0.0,0.0,0.0,0.05,0.0,0.0,0.0,0.0,0.0,0.0,0.0,0.0,0.0,0.0,0.0,0.0
1494527471663325615,259,1494527472147648930,gyro_link,0.0,0.0,0.0,1.0,1.79769313486e+308,0.0,0.0,0.0,1.79769313486e+308,0.0,0.0,0.0,0.05,0.0,0.0,0.0,1.79769313486e+308,0.0,0.0,0.0,1.79769313486e+308,0.0,0.0,0.0,0.05,0.0,0.0,0.0,0.0,0.0,0.0,0.0,0.0,0.0,0.0,0.0,0.0
1494527471687896733,260,1494527472170421966,gyro_link,0.0,0.0,0.0,1.0,1.79769313486e+308,0.0,0.0,0.0,1.79769313486e+308,0.0,0.0,0.0,0.05,0.0,0.0,0.0,1.79769313486e+308,0.0,0.0,0.0,1.79769313486e+308,0.0,0.0,0.0,0.05,0.0,0.0,0.0,0.0,0.0,0.0,0.0,0.0,0.0,0.0,0.0,0.0
1494527471708802426,261,1494527472188520680,gyro_link,0.0,0.0,0.0,1.0,1.79769313486e+308,0.0,0.0,0.0,1.79769313486e+308,0.0,0.0,0.0,0.05,0.0,0.0,0.0,1.79769313486e+308,0.0,0.0,0.0,1.79769313486e+308,0.0,0.0,0.0,0.05,0.0,0.0,0.0,0.0,0.0,0.0,0.0,0.0,0.0,0.0,0.0,0.0
1494527471729144381,262,1494527472208917909,gyro_link,0.0,0.0,0.0,1.0,1.79769313486e+308,0.0,0.0,0.0,1.79769313486e+308,0.0,0.0,0.0,0.05,0.0,0.0,0.0,1.79769313486e+308,0.0,0.0,0.0,1.79769313486e+308,0.0,0.0,0.0,0.05,0.0,0.0,0.0,0.0,0.0,0.0,0.0,0.0,0.0,0.0,0.0,0.0
1494527471744493865,263,1494527472228925727,gyro_link,0.0,0.0,0.0,1.0,1.79769313486e+308,0.0,0.0,0.0,1.79769313486e+308,0.0,0.0,0.0,0.05,0.0,0.0,0.0,1.79769313486e+308,0.0,0.0,0.0,1.79769313486e+308,0.0,0.0,0.0,0.05,0.0,0.0,0.0,0.0,0.0,0.0,0.0,0.0,0.0,0.0,0.0,0.0
1494527471765845449,264,1494527472248920753,gyro_link,0.0,0.0,0.0,1.0,1.79769313486e+308,0.0,0.0,0.0,1.79769313486e+308,0.0,0.0,0.0,0.05,0.0,0.0,0.0,1.79769313486e+308,0.0,0.0,0.0,1.79769313486e+308,0.0,0.0,0.0,0.05,0.0,0.0,0.0,0.0,0.0,0.0,0.0,0.0,0.0,0.0,0.0,0.0
1494527471786209750,265,1494527472271957703,gyro_link,0.0,0.0,0.0,1.0,1.79769313486e+308,0.0,0.0,0.0,1.79769313486e+308,0.0,0.0,0.0,0.05,0.0,0.0,0.0,1.79769313486e+308,0.0,0.0,0.0,1.79769313486e+308,0.0,0.0,0.0,0.05,0.0,0.0,0.0,0.0,0.0,0.0,0.0,0.0,0.0,0.0,0.0,0.0
1494527471803150095,266,1494527472288755973,gyro_link,0.0,0.0,0.0,1.0,1.79769313486e+308,0.0,0.0,0.0,1.79769313486e+308,0.0,0.0,0.0,0.05,0.0,0.0,0.0,1.79769313486e+308,0.0,0.0,0.0,1.79769313486e+308,0.0,0.0,0.0,0.05,0.0,0.0,0.0,0.0,0.0,0.0,0.0,0.0,0.0,0.0,0.0,0.0
1494527471832855697,267,1494527472308578626,gyro_link,0.0,0.0,0.0,1.0,1.79769313486e+308,0.0,0.0,0.0,1.79769313486e+308,0.0,0.0,0.0,0.05,0.0,0.0,0.0,1.79769313486e+308,0.0,0.0,0.0,1.79769313486e+308,0.0,0.0,0.0,0.05,0.0,0.0,0.0,0.0,0.0,0.0,0.0,0.0,0.0,0.0,0.0,0.0
1494527471844610684,268,1494527472329010938,gyro_link,0.0,0.0,0.0,1.0,1.79769313486e+308,0.0,0.0,0.0,1.79769313486e+308,0.0,0.0,0.0,0.05,0.0,0.0,0.0,1.79769313486e+308,0.0,0.0,0.0,1.79769313486e+308,0.0,0.0,0.0,0.05,0.0,0.0,0.0,0.0,0.0,0.0,0.0,0.0,0.0,0.0,0.0,0.0
1494527471862806669,269,1494527472348099308,gyro_link,0.0,0.0,0.0,1.0,1.79769313486e+308,0.0,0.0,0.0,1.79769313486e+308,0.0,0.0,0.0,0.05,0.0,0.0,0.0,1.79769313486e+308,0.0,0.0,0.0,1.79769313486e+308,0.0,0.0,0.0,0.05,0.0,0.0,0.0,0.0,0.0,0.0,0.0,0.0,0.0,0.0,0.0,0.0
1494527471884592053,270,1494527472370126061,gyro_link,0.0,0.0,0.0,1.0,1.79769313486e+308,0.0,0.0,0.0,1.79769313486e+308,0.0,0.0,0.0,0.05,0.0,0.0,0.0,1.79769313486e+308,0.0,0.0,0.0,1.79769313486e+308,0.0,0.0,0.0,0.05,0.0,0.0,0.0,0.0,0.0,0.0,0.0,0.0,0.0,0.0,0.0,0.0
1494527471906210787,271,1494527472388899059,gyro_link,0.0,0.0,0.0,1.0,1.79769313486e+308,0.0,0.0,0.0,1.79769313486e+308,0.0,0.0,0.0,0.05,0.0,0.0,0.0,1.79769313486e+308,0.0,0.0,0.0,1.79769313486e+308,0.0,0.0,0.0,0.05,0.0,0.0,0.0,0.0,0.0,0.0,0.0,0.0,0.0,0.0,0.0,0.0
1494527471923301561,272,1494527472408705670,gyro_link,0.0,0.0,0.0,1.0,1.79769313486e+308,0.0,0.0,0.0,1.79769313486e+308,0.0,0.0,0.0,0.05,0.0,0.0,0.0,1.79769313486e+308,0.0,0.0,0.0,1.79769313486e+308,0.0,0.0,0.0,0.05,0.0,0.0,0.0,0.0,0.0,0.0,0.0,0.0,0.0,0.0,0.0,0.0
1494527471945732857,273,1494527472429615227,gyro_link,0.0,0.0,0.0,1.0,1.79769313486e+308,0.0,0.0,0.0,1.79769313486e+308,0.0,0.0,0.0,0.05,0.0,0.0,0.0,1.79769313486e+308,0.0,0.0,0.0,1.79769313486e+308,0.0,0.0,0.0,0.05,0.0,0.0,0.0,0.0,0.0,0.0,0.0,0.0,0.0,0.0,0.0,0.0
1494527471968065083,274,1494527472450550951,gyro_link,0.0,0.0,0.0,1.0,1.79769313486e+308,0.0,0.0,0.0,1.79769313486e+308,0.0,0.0,0.0,0.05,0.0,0.0,0.0,1.79769313486e+308,0.0,0.0,0.0,1.79769313486e+308,0.0,0.0,0.0,0.05,0.0,0.0,0.0,0.0,0.0,0.0,0.0,0.0,0.0,0.0,0.0,0.0
1494527471984046681,275,1494527472468856704,gyro_link,0.0,0.0,0.0,1.0,1.79769313486e+308,0.0,0.0,0.0,1.79769313486e+308,0.0,0.0,0.0,0.05,0.0,0.0,0.0,1.79769313486e+308,0.0,0.0,0.0,1.79769313486e+308,0.0,0.0,0.0,0.05,0.0,0.0,0.0,0.0,0.0,0.0,0.0,0.0,0.0,0.0,0.0,0.0
1494527472005047020,276,1494527472488764314,gyro_link,0.0,0.0,0.0,1.0,1.79769313486e+308,0.0,0.0,0.0,1.79769313486e+308,0.0,0.0,0.0,0.05,0.0,0.0,0.0,1.79769313486e+308,0.0,0.0,0.0,1.79769313486e+308,0.0,0.0,0.0,0.05,0.0,0.0,0.0,0.0,0.0,0.0,0.0,0.0,0.0,0.0,0.0,0.0
1494527472023413340,277,1494527472508721799,gyro_link,0.0,0.0,0.0,1.0,1.79769313486e+308,0.0,0.0,0.0,1.79769313486e+308,0.0,0.0,0.0,0.05,0.0,0.0,0.0,1.79769313486e+308,0.0,0.0,0.0,1.79769313486e+308,0.0,0.0,0.0,0.05,0.0,0.0,0.0,0.0,0.0,0.0,0.0,0.0,0.0,0.0,0.0,0.0
1494527472044040968,278,1494527472528884448,gyro_link,0.0,0.0,0.0,1.0,1.79769313486e+308,0.0,0.0,0.0,1.79769313486e+308,0.0,0.0,0.0,0.05,0.0,0.0,0.0,1.79769313486e+308,0.0,0.0,0.0,1.79769313486e+308,0.0,0.0,0.0,0.05,0.0,0.0,0.0,0.0,0.0,0.0,0.0,0.0,0.0,0.0,0.0,0.0
1494527472063809563,279,1494527472548554435,gyro_link,0.0,0.0,0.0,1.0,1.79769313486e+308,0.0,0.0,0.0,1.79769313486e+308,0.0,0.0,0.0,0.05,0.0,0.0,0.0,1.79769313486e+308,0.0,0.0,0.0,1.79769313486e+308,0.0,0.0,0.0,0.05,0.0,0.0,0.0,0.0,0.0,0.0,0.0,0.0,0.0,0.0,0.0,0.0
1494527472091058249,280,1494527472569926988,gyro_link,0.0,0.0,0.0,1.0,1.79769313486e+308,0.0,0.0,0.0,1.79769313486e+308,0.0,0.0,0.0,0.05,0.0,0.0,0.0,1.79769313486e+308,0.0,0.0,0.0,1.79769313486e+308,0.0,0.0,0.0,0.05,0.0,0.0,0.0,0.0,0.0,0.0,0.0,0.0,0.0,0.0,0.0,0.0
1494527472104827166,281,1494527472589907514,gyro_link,0.0,0.0,0.0,1.0,1.79769313486e+308,0.0,0.0,0.0,1.79769313486e+308,0.0,0.0,0.0,0.05,0.0,0.0,0.0,1.79769313486e+308,0.0,0.0,0.0,1.79769313486e+308,0.0,0.0,0.0,0.05,0.0,0.0,0.0,0.0,0.0,0.0,0.0,0.0,0.0,0.0,0.0,0.0
1494527472124167891,282,1494527472608732386,gyro_link,0.0,0.0,0.0,1.0,1.79769313486e+308,0.0,0.0,0.0,1.79769313486e+308,0.0,0.0,0.0,0.05,0.0,0.0,0.0,1.79769313486e+308,0.0,0.0,0.0,1.79769313486e+308,0.0,0.0,0.0,0.05,0.0,0.0,0.0,0.0,0.0,0.0,0.0,0.0,0.0,0.0,0.0,0.0
1494527472144314580,283,1494527472628940243,gyro_link,0.0,0.0,0.0,1.0,1.79769313486e+308,0.0,0.0,0.0,1.79769313486e+308,0.0,0.0,0.0,0.05,0.0,0.0,0.0,1.79769313486e+308,0.0,0.0,0.0,1.79769313486e+308,0.0,0.0,0.0,0.05,0.0,0.0,0.0,0.0,0.0,0.0,0.0,0.0,0.0,0.0,0.0,0.0
1494527472164474005,284,1494527472648742937,gyro_link,0.0,0.0,0.0,1.0,1.79769313486e+308,0.0,0.0,0.0,1.79769313486e+308,0.0,0.0,0.0,0.05,0.0,0.0,0.0,1.79769313486e+308,0.0,0.0,0.0,1.79769313486e+308,0.0,0.0,0.0,0.05,0.0,0.0,0.0,0.0,0.0,0.0,0.0,0.0,0.0,0.0,0.0,0.0
1494527472183730066,285,1494527472668606631,gyro_link,0.0,0.0,0.0,1.0,1.79769313486e+308,0.0,0.0,0.0,1.79769313486e+308,0.0,0.0,0.0,0.05,0.0,0.0,0.0,1.79769313486e+308,0.0,0.0,0.0,1.79769313486e+308,0.0,0.0,0.0,0.05,0.0,0.0,0.0,0.0,0.0,0.0,0.0,0.0,0.0,0.0,0.0,0.0
1494527472213748388,286,1494527472688523075,gyro_link,0.0,0.0,0.0,1.0,1.79769313486e+308,0.0,0.0,0.0,1.79769313486e+308,0.0,0.0,0.0,0.05,0.0,0.0,0.0,1.79769313486e+308,0.0,0.0,0.0,1.79769313486e+308,0.0,0.0,0.0,0.05,0.0,0.0,0.0,0.0,0.0,0.0,0.0,0.0,0.0,0.0,0.0,0.0
1494527472223730797,287,1494527472708458935,gyro_link,0.0,0.0,0.0,1.0,1.79769313486e+308,0.0,0.0,0.0,1.79769313486e+308,0.0,0.0,0.0,0.05,0.0,0.0,0.0,1.79769313486e+308,0.0,0.0,0.0,1.79769313486e+308,0.0,0.0,0.0,0.05,0.0,0.0,0.0,0.0,0.0,0.0,0.0,0.0,0.0,0.0,0.0,0.0
1494527472245981780,288,1494527472728754165,gyro_link,0.0,0.0,0.0,1.0,1.79769313486e+308,0.0,0.0,0.0,1.79769313486e+308,0.0,0.0,0.0,0.05,0.0,0.0,0.0,1.79769313486e+308,0.0,0.0,0.0,1.79769313486e+308,0.0,0.0,0.0,0.05,0.0,0.0,0.0,0.0,0.0,0.0,0.0,0.0,0.0,0.0,0.0,0.0
1494527472266055063,289,1494527472748537652,gyro_link,0.0,0.0,0.0,1.0,1.79769313486e+308,0.0,0.0,0.0,1.79769313486e+308,0.0,0.0,0.0,0.05,0.0,0.0,0.0,1.79769313486e+308,0.0,0.0,0.0,1.79769313486e+308,0.0,0.0,0.0,0.05,0.0,0.0,0.0,0.0,0.0,0.0,0.0,0.0,0.0,0.0,0.0,0.0
1494527472290382261,290,1494527472769862538,gyro_link,0.0,0.0,0.0,1.0,1.79769313486e+308,0.0,0.0,0.0,1.79769313486e+308,0.0,0.0,0.0,0.05,0.0,0.0,0.0,1.79769313486e+308,0.0,0.0,0.0,1.79769313486e+308,0.0,0.0,0.0,0.05,0.0,0.0,0.0,0.0,0.0,0.0,0.0,0.0,0.0,0.0,0.0,0.0
1494527472313541412,291,1494527472789967563,gyro_link,0.0,0.0,0.0,1.0,1.79769313486e+308,0.0,0.0,0.0,1.79769313486e+308,0.0,0.0,0.0,0.05,0.0,0.0,0.0,1.79769313486e+308,0.0,0.0,0.0,1.79769313486e+308,0.0,0.0,0.0,0.05,0.0,0.0,0.0,0.0,0.0,0.0,0.0,0.0,0.0,0.0,0.0,0.0
1494527472360149859,292,1494527472810605248,gyro_link,0.0,0.0,0.0,1.0,1.79769313486e+308,0.0,0.0,0.0,1.79769313486e+308,0.0,0.0,0.0,0.05,0.0,0.0,0.0,1.79769313486e+308,0.0,0.0,0.0,1.79769313486e+308,0.0,0.0,0.0,0.05,0.0,0.0,0.0,0.0,0.0,0.0,0.0,0.0,0.0,0.0,0.0,0.0
1494527472360172385,293,1494527472830859896,gyro_link,0.0,0.0,0.0,1.0,1.79769313486e+308,0.0,0.0,0.0,1.79769313486e+308,0.0,0.0,0.0,0.05,0.0,0.0,0.0,1.79769313486e+308,0.0,0.0,0.0,1.79769313486e+308,0.0,0.0,0.0,0.05,0.0,0.0,0.0,0.0,0.0,0.0,0.0,0.0,0.0,0.0,0.0,0.0
1494527472373677609,294,1494527472851522664,gyro_link,0.0,0.0,0.0,1.0,1.79769313486e+308,0.0,0.0,0.0,1.79769313486e+308,0.0,0.0,0.0,0.05,0.0,0.0,0.0,1.79769313486e+308,0.0,0.0,0.0,1.79769313486e+308,0.0,0.0,0.0,0.05,0.0,0.0,0.0,0.0,0.0,0.0,0.0,0.0,0.0,0.0,0.0,0.0
1494527472406626236,295,1494527472868369934,gyro_link,0.0,0.0,0.0,1.0,1.79769313486e+308,0.0,0.0,0.0,1.79769313486e+308,0.0,0.0,0.0,0.05,0.0,0.0,0.0,1.79769313486e+308,0.0,0.0,0.0,1.79769313486e+308,0.0,0.0,0.0,0.05,0.0,0.0,0.0,0.0,0.0,0.0,0.0,0.0,0.0,0.0,0.0,0.0
1494527472483034955,296,1494527472888573207,gyro_link,0.0,0.0,0.0,1.0,1.79769313486e+308,0.0,0.0,0.0,1.79769313486e+308,0.0,0.0,0.0,0.05,0.0,0.0,0.0,1.79769313486e+308,0.0,0.0,0.0,1.79769313486e+308,0.0,0.0,0.0,0.05,0.0,0.0,0.0,0.0,0.0,0.0,0.0,0.0,0.0,0.0,0.0,0.0
1494527472483051697,297,1494527472908612191,gyro_link,0.0,0.0,0.0,1.0,1.79769313486e+308,0.0,0.0,0.0,1.79769313486e+308,0.0,0.0,0.0,0.05,0.0,0.0,0.0,1.79769313486e+308,0.0,0.0,0.0,1.79769313486e+308,0.0,0.0,0.0,0.05,0.0,0.0,0.0,0.0,0.0,0.0,0.0,0.0,0.0,0.0,0.0,0.0
1494527472483064000,298,1494527472931276395,gyro_link,0.0,0.0,0.0,1.0,1.79769313486e+308,0.0,0.0,0.0,1.79769313486e+308,0.0,0.0,0.0,0.05,0.0,0.0,0.0,1.79769313486e+308,0.0,0.0,0.0,1.79769313486e+308,0.0,0.0,0.0,0.05,0.0,0.0,0.0,0.0,0.0,0.0,0.0,0.0,0.0,0.0,0.0,0.0
1494527472483181385,299,1494527472952873028,gyro_link,0.0,0.0,0.0,1.0,1.79769313486e+308,0.0,0.0,0.0,1.79769313486e+308,0.0,0.0,0.0,0.05,0.0,0.0,0.0,1.79769313486e+308,0.0,0.0,0.0,1.79769313486e+308,0.0,0.0,0.0,0.05,0.0,0.0,0.0,0.0,0.0,0.0,0.0,0.0,0.0,0.0,0.0,0.0
1494527472500848424,300,1494527472980966505,gyro_link,0.0,0.0,0.0,1.0,1.79769313486e+308,0.0,0.0,0.0,1.79769313486e+308,0.0,0.0,0.0,0.05,0.0,0.0,0.0,1.79769313486e+308,0.0,0.0,0.0,1.79769313486e+308,0.0,0.0,0.0,0.05,0.0,0.0,0.0,0.0,0.0,0.0,0.0,0.0,0.0,0.0,0.0,0.0
1494527472526143020,301,1494527472989692115,gyro_link,0.0,0.0,0.0,1.0,1.79769313486e+308,0.0,0.0,0.0,1.79769313486e+308,0.0,0.0,0.0,0.05,0.0,0.0,0.0,1.79769313486e+308,0.0,0.0,0.0,1.79769313486e+308,0.0,0.0,0.0,0.05,0.0,0.0,0.0,0.0,0.0,0.0,0.0,0.0,0.0,0.0,0.0,0.0
1494527472526194371,302,1494527473009693600,gyro_link,0.0,0.0,0.0,1.0,1.79769313486e+308,0.0,0.0,0.0,1.79769313486e+308,0.0,0.0,0.0,0.05,0.0,0.0,0.0,1.79769313486e+308,0.0,0.0,0.0,1.79769313486e+308,0.0,0.0,0.0,0.05,0.0,0.0,0.0,0.0,0.0,0.0,0.0,0.0,0.0,0.0,0.0,0.0
1494527472552601872,303,1494527473029574544,gyro_link,0.0,0.0,0.0,1.0,1.79769313486e+308,0.0,0.0,0.0,1.79769313486e+308,0.0,0.0,0.0,0.05,0.0,0.0,0.0,1.79769313486e+308,0.0,0.0,0.0,1.79769313486e+308,0.0,0.0,0.0,0.05,0.0,0.0,0.0,0.0,0.0,0.0,0.0,0.0,0.0,0.0,0.0,0.0
1494527472564417937,304,1494527473049552112,gyro_link,0.0,0.0,0.0,1.0,1.79769313486e+308,0.0,0.0,0.0,1.79769313486e+308,0.0,0.0,0.0,0.05,0.0,0.0,0.0,1.79769313486e+308,0.0,0.0,0.0,1.79769313486e+308,0.0,0.0,0.0,0.05,0.0,0.0,0.0,0.0,0.0,0.0,0.0,0.0,0.0,0.0,0.0,0.0
1494527472586375657,305,1494527473069685595,gyro_link,0.0,0.0,0.0,1.0,1.79769313486e+308,0.0,0.0,0.0,1.79769313486e+308,0.0,0.0,0.0,0.05,0.0,0.0,0.0,1.79769313486e+308,0.0,0.0,0.0,1.79769313486e+308,0.0,0.0,0.0,0.05,0.0,0.0,0.0,0.0,0.0,0.0,0.0,0.0,0.0,0.0,0.0,0.0
1494527472609380160,306,1494527473089658705,gyro_link,0.0,0.0,0.0,1.0,1.79769313486e+308,0.0,0.0,0.0,1.79769313486e+308,0.0,0.0,0.0,0.05,0.0,0.0,0.0,1.79769313486e+308,0.0,0.0,0.0,1.79769313486e+308,0.0,0.0,0.0,0.05,0.0,0.0,0.0,0.0,0.0,0.0,0.0,0.0,0.0,0.0,0.0,0.0
1494527472625110087,307,1494527473109594190,gyro_link,0.0,0.0,0.0,1.0,1.79769313486e+308,0.0,0.0,0.0,1.79769313486e+308,0.0,0.0,0.0,0.05,0.0,0.0,0.0,1.79769313486e+308,0.0,0.0,0.0,1.79769313486e+308,0.0,0.0,0.0,0.05,0.0,0.0,0.0,0.0,0.0,0.0,0.0,0.0,0.0,0.0,0.0,0.0
1494527472644411733,308,1494527473129591258,gyro_link,0.0,0.0,0.0,1.0,1.79769313486e+308,0.0,0.0,0.0,1.79769313486e+308,0.0,0.0,0.0,0.05,0.0,0.0,0.0,1.79769313486e+308,0.0,0.0,0.0,1.79769313486e+308,0.0,0.0,0.0,0.05,0.0,0.0,0.0,0.0,0.0,0.0,0.0,0.0,0.0,0.0,0.0,0.0
1494527472666006295,309,1494527473150659480,gyro_link,0.0,0.0,0.0,1.0,1.79769313486e+308,0.0,0.0,0.0,1.79769313486e+308,0.0,0.0,0.0,0.05,0.0,0.0,0.0,1.79769313486e+308,0.0,0.0,0.0,1.79769313486e+308,0.0,0.0,0.0,0.05,0.0,0.0,0.0,0.0,0.0,0.0,0.0,0.0,0.0,0.0,0.0,0.0
1494527472685129135,310,1494527473169603560,gyro_link,0.0,0.0,0.0,1.0,1.79769313486e+308,0.0,0.0,0.0,1.79769313486e+308,0.0,0.0,0.0,0.05,0.0,0.0,0.0,1.79769313486e+308,0.0,0.0,0.0,1.79769313486e+308,0.0,0.0,0.0,0.05,0.0,0.0,0.0,0.0,0.0,0.0,0.0,0.0,0.0,0.0,0.0,0.0
1494527472704956370,311,1494527473189410671,gyro_link,0.0,0.0,0.0,1.0,1.79769313486e+308,0.0,0.0,0.0,1.79769313486e+308,0.0,0.0,0.0,0.05,0.0,0.0,0.0,1.79769313486e+308,0.0,0.0,0.0,1.79769313486e+308,0.0,0.0,0.0,0.05,0.0,0.0,0.0,0.0,0.0,0.0,0.0,0.0,0.0,0.0,0.0,0.0
1494527472724473392,312,1494527473209552612,gyro_link,0.0,0.0,0.0,1.0,1.79769313486e+308,0.0,0.0,0.0,1.79769313486e+308,0.0,0.0,0.0,0.05,0.0,0.0,0.0,1.79769313486e+308,0.0,0.0,0.0,1.79769313486e+308,0.0,0.0,0.0,0.05,0.0,0.0,0.0,0.0,0.0,0.0,0.0,0.0,0.0,0.0,0.0,0.0
1494527472745036995,313,1494527473229594263,gyro_link,0.0,0.0,0.0,1.0,1.79769313486e+308,0.0,0.0,0.0,1.79769313486e+308,0.0,0.0,0.0,0.05,0.0,0.0,0.0,1.79769313486e+308,0.0,0.0,0.0,1.79769313486e+308,0.0,0.0,0.0,0.05,0.0,0.0,0.0,0.0,0.0,0.0,0.0,0.0,0.0,0.0,0.0,0.0
1494527472765020112,314,1494527473249773912,gyro_link,0.0,0.0,0.0,1.0,1.79769313486e+308,0.0,0.0,0.0,1.79769313486e+308,0.0,0.0,0.0,0.05,0.0,0.0,0.0,1.79769313486e+308,0.0,0.0,0.0,1.79769313486e+308,0.0,0.0,0.0,0.05,0.0,0.0,0.0,0.0,0.0,0.0,0.0,0.0,0.0,0.0,0.0,0.0
1494527472784197487,315,1494527473269573232,gyro_link,0.0,0.0,0.0,1.0,1.79769313486e+308,0.0,0.0,0.0,1.79769313486e+308,0.0,0.0,0.0,0.05,0.0,0.0,0.0,1.79769313486e+308,0.0,0.0,0.0,1.79769313486e+308,0.0,0.0,0.0,0.05,0.0,0.0,0.0,0.0,0.0,0.0,0.0,0.0,0.0,0.0,0.0,0.0
1494527472805553863,316,1494527473291035409,gyro_link,0.0,0.0,0.0,1.0,1.79769313486e+308,0.0,0.0,0.0,1.79769313486e+308,0.0,0.0,0.0,0.05,0.0,0.0,0.0,1.79769313486e+308,0.0,0.0,0.0,1.79769313486e+308,0.0,0.0,0.0,0.05,0.0,0.0,0.0,0.0,0.0,0.0,0.0,0.0,0.0,0.0,0.0,0.0
1494527472824671661,317,1494527473309709241,gyro_link,0.0,0.0,0.0,1.0,1.79769313486e+308,0.0,0.0,0.0,1.79769313486e+308,0.0,0.0,0.0,0.05,0.0,0.0,0.0,1.79769313486e+308,0.0,0.0,0.0,1.79769313486e+308,0.0,0.0,0.0,0.05,0.0,0.0,0.0,0.0,0.0,0.0,0.0,0.0,0.0,0.0,0.0,0.0
1494527472844557976,318,1494527473331060919,gyro_link,0.0,0.0,0.0,1.0,1.79769313486e+308,0.0,0.0,0.0,1.79769313486e+308,0.0,0.0,0.0,0.05,0.0,0.0,0.0,1.79769313486e+308,0.0,0.0,0.0,1.79769313486e+308,0.0,0.0,0.0,0.05,0.0,0.0,0.0,0.0,0.0,0.0,0.0,0.0,0.0,0.0,0.0,0.0
1494527472870365432,319,1494527473353168630,gyro_link,0.0,0.0,0.0,1.0,1.79769313486e+308,0.0,0.0,0.0,1.79769313486e+308,0.0,0.0,0.0,0.05,0.0,0.0,0.0,1.79769313486e+308,0.0,0.0,0.0,1.79769313486e+308,0.0,0.0,0.0,0.05,0.0,0.0,0.0,0.0,0.0,0.0,0.0,0.0,0.0,0.0,0.0,0.0
1494527472884914073,320,1494527473369610904,gyro_link,0.0,0.0,0.0,1.0,1.79769313486e+308,0.0,0.0,0.0,1.79769313486e+308,0.0,0.0,0.0,0.05,0.0,0.0,0.0,1.79769313486e+308,0.0,0.0,0.0,1.79769313486e+308,0.0,0.0,0.0,0.05,0.0,0.0,0.0,0.0,0.0,0.0,0.0,0.0,0.0,0.0,0.0,0.0
1494527472905890161,321,1494527473389605014,gyro_link,0.0,0.0,0.0,1.0,1.79769313486e+308,0.0,0.0,0.0,1.79769313486e+308,0.0,0.0,0.0,0.05,0.0,0.0,0.0,1.79769313486e+308,0.0,0.0,0.0,1.79769313486e+308,0.0,0.0,0.0,0.05,0.0,0.0,0.0,0.0,0.0,0.0,0.0,0.0,0.0,0.0,0.0,0.0
1494527472925134797,322,1494527473409474833,gyro_link,0.0,0.0,0.0,1.0,1.79769313486e+308,0.0,0.0,0.0,1.79769313486e+308,0.0,0.0,0.0,0.05,0.0,0.0,0.0,1.79769313486e+308,0.0,0.0,0.0,1.79769313486e+308,0.0,0.0,0.0,0.05,0.0,0.0,0.0,0.0,0.0,0.0,0.0,0.0,0.0,0.0,0.0,0.0
1494527472944413718,323,1494527473429673398,gyro_link,0.0,0.0,0.0,1.0,1.79769313486e+308,0.0,0.0,0.0,1.79769313486e+308,0.0,0.0,0.0,0.05,0.0,0.0,0.0,1.79769313486e+308,0.0,0.0,0.0,1.79769313486e+308,0.0,0.0,0.0,0.05,0.0,0.0,0.0,0.0,0.0,0.0,0.0,0.0,0.0,0.0,0.0,0.0
1494527472965490555,324,1494527473449719549,gyro_link,0.0,0.0,0.0,1.0,1.79769313486e+308,0.0,0.0,0.0,1.79769313486e+308,0.0,0.0,0.0,0.05,0.0,0.0,0.0,1.79769313486e+308,0.0,0.0,0.0,1.79769313486e+308,0.0,0.0,0.0,0.05,0.0,0.0,0.0,0.0,0.0,0.0,0.0,0.0,0.0,0.0,0.0,0.0
1494527472984202968,325,1494527473469361371,gyro_link,0.0,0.0,0.0,1.0,1.79769313486e+308,0.0,0.0,0.0,1.79769313486e+308,0.0,0.0,0.0,0.05,0.0,0.0,0.0,1.79769313486e+308,0.0,0.0,0.0,1.79769313486e+308,0.0,0.0,0.0,0.05,0.0,0.0,0.0,0.0,0.0,0.0,0.0,0.0,0.0,0.0,0.0,0.0
1494527473004070480,326,1494527473489626852,gyro_link,0.0,0.0,0.0,1.0,1.79769313486e+308,0.0,0.0,0.0,1.79769313486e+308,0.0,0.0,0.0,0.05,0.0,0.0,0.0,1.79769313486e+308,0.0,0.0,0.0,1.79769313486e+308,0.0,0.0,0.0,0.05,0.0,0.0,0.0,0.0,0.0,0.0,0.0,0.0,0.0,0.0,0.0,0.0
1494527473024739865,327,1494527473509516421,gyro_link,0.0,0.0,0.0,1.0,1.79769313486e+308,0.0,0.0,0.0,1.79769313486e+308,0.0,0.0,0.0,0.05,0.0,0.0,0.0,1.79769313486e+308,0.0,0.0,0.0,1.79769313486e+308,0.0,0.0,0.0,0.05,0.0,0.0,0.0,0.0,0.0,0.0,0.0,0.0,0.0,0.0,0.0,0.0
1494527473045300289,328,1494527473530472104,gyro_link,0.0,0.0,0.0,1.0,1.79769313486e+308,0.0,0.0,0.0,1.79769313486e+308,0.0,0.0,0.0,0.05,0.0,0.0,0.0,1.79769313486e+308,0.0,0.0,0.0,1.79769313486e+308,0.0,0.0,0.0,0.05,0.0,0.0,0.0,0.0,0.0,0.0,0.0,0.0,0.0,0.0,0.0,0.0
1494527473067514638,329,1494527473551151997,gyro_link,0.0,0.0,0.0,1.0,1.79769313486e+308,0.0,0.0,0.0,1.79769313486e+308,0.0,0.0,0.0,0.05,0.0,0.0,0.0,1.79769313486e+308,0.0,0.0,0.0,1.79769313486e+308,0.0,0.0,0.0,0.05,0.0,0.0,0.0,0.0,0.0,0.0,0.0,0.0,0.0,0.0,0.0,0.0
1494527473086031116,330,1494527473570678487,gyro_link,0.0,0.0,0.0,1.0,1.79769313486e+308,0.0,0.0,0.0,1.79769313486e+308,0.0,0.0,0.0,0.05,0.0,0.0,0.0,1.79769313486e+308,0.0,0.0,0.0,1.79769313486e+308,0.0,0.0,0.0,0.05,0.0,0.0,0.0,0.0,0.0,0.0,0.0,0.0,0.0,0.0,0.0,0.0
1494527473105048602,331,1494527473590414599,gyro_link,0.0,0.0,0.0,1.0,1.79769313486e+308,0.0,0.0,0.0,1.79769313486e+308,0.0,0.0,0.0,0.05,0.0,0.0,0.0,1.79769313486e+308,0.0,0.0,0.0,1.79769313486e+308,0.0,0.0,0.0,0.05,0.0,0.0,0.0,0.0,0.0,0.0,0.0,0.0,0.0,0.0,0.0,0.0
1494527473126691393,332,1494527473610582873,gyro_link,0.0,0.0,0.0,1.0,1.79769313486e+308,0.0,0.0,0.0,1.79769313486e+308,0.0,0.0,0.0,0.05,0.0,0.0,0.0,1.79769313486e+308,0.0,0.0,0.0,1.79769313486e+308,0.0,0.0,0.0,0.05,0.0,0.0,0.0,0.0,0.0,0.0,0.0,0.0,0.0,0.0,0.0,0.0
1494527473143724459,333,1494527473629436079,gyro_link,0.0,0.0,0.0,1.0,1.79769313486e+308,0.0,0.0,0.0,1.79769313486e+308,0.0,0.0,0.0,0.05,0.0,0.0,0.0,1.79769313486e+308,0.0,0.0,0.0,1.79769313486e+308,0.0,0.0,0.0,0.05,0.0,0.0,0.0,0.0,0.0,0.0,0.0,0.0,0.0,0.0,0.0,0.0
1494527473166541040,334,1494527473650525801,gyro_link,0.0,0.0,0.0,1.0,1.79769313486e+308,0.0,0.0,0.0,1.79769313486e+308,0.0,0.0,0.0,0.05,0.0,0.0,0.0,1.79769313486e+308,0.0,0.0,0.0,1.79769313486e+308,0.0,0.0,0.0,0.05,0.0,0.0,0.0,0.0,0.0,0.0,0.0,0.0,0.0,0.0,0.0,0.0
1494527473187535910,335,1494527473670839491,gyro_link,0.0,0.0,0.0,1.0,1.79769313486e+308,0.0,0.0,0.0,1.79769313486e+308,0.0,0.0,0.0,0.05,0.0,0.0,0.0,1.79769313486e+308,0.0,0.0,0.0,1.79769313486e+308,0.0,0.0,0.0,0.05,0.0,0.0,0.0,0.0,0.0,0.0,0.0,0.0,0.0,0.0,0.0,0.0
1494527473206376521,336,1494527473691302095,gyro_link,0.0,0.0,0.0,1.0,1.79769313486e+308,0.0,0.0,0.0,1.79769313486e+308,0.0,0.0,0.0,0.05,0.0,0.0,0.0,1.79769313486e+308,0.0,0.0,0.0,1.79769313486e+308,0.0,0.0,0.0,0.05,0.0,0.0,0.0,0.0,0.0,0.0,0.0,0.0,0.0,0.0,0.0,0.0
1494527473226024170,337,1494527473710635712,gyro_link,0.0,0.0,0.0,1.0,1.79769313486e+308,0.0,0.0,0.0,1.79769313486e+308,0.0,0.0,0.0,0.05,0.0,0.0,0.0,1.79769313486e+308,0.0,0.0,0.0,1.79769313486e+308,0.0,0.0,0.0,0.05,0.0,0.0,0.0,0.0,0.0,0.0,0.0,0.0,0.0,0.0,0.0,0.0
1494527473245263981,338,1494527473730392532,gyro_link,0.0,0.0,0.0,1.0,1.79769313486e+308,0.0,0.0,0.0,1.79769313486e+308,0.0,0.0,0.0,0.05,0.0,0.0,0.0,1.79769313486e+308,0.0,0.0,0.0,1.79769313486e+308,0.0,0.0,0.0,0.05,0.0,0.0,0.0,0.0,0.0,0.0,0.0,0.0,0.0,0.0,0.0,0.0
1494527473267355193,339,1494527473750473807,gyro_link,0.0,0.0,0.0,1.0,1.79769313486e+308,0.0,0.0,0.0,1.79769313486e+308,0.0,0.0,0.0,0.05,0.0,0.0,0.0,1.79769313486e+308,0.0,0.0,0.0,1.79769313486e+308,0.0,0.0,0.0,0.05,0.0,0.0,0.0,0.0,0.0,0.0,0.0,0.0,0.0,0.0,0.0,0.0
1494527473289248152,340,1494527473770493500,gyro_link,0.0,0.0,0.0,1.0,1.79769313486e+308,0.0,0.0,0.0,1.79769313486e+308,0.0,0.0,0.0,0.05,0.0,0.0,0.0,1.79769313486e+308,0.0,0.0,0.0,1.79769313486e+308,0.0,0.0,0.0,0.05,0.0,0.0,0.0,0.0,0.0,0.0,0.0,0.0,0.0,0.0,0.0,0.0
1494527473307144881,341,1494527473790316570,gyro_link,0.0,0.0,0.0,1.0,1.79769313486e+308,0.0,0.0,0.0,1.79769313486e+308,0.0,0.0,0.0,0.05,0.0,0.0,0.0,1.79769313486e+308,0.0,0.0,0.0,1.79769313486e+308,0.0,0.0,0.0,0.05,0.0,0.0,0.0,0.0,0.0,0.0,0.0,0.0,0.0,0.0,0.0,0.0
1494527473325144515,342,1494527473810374054,gyro_link,0.0,0.0,0.0,1.0,1.79769313486e+308,0.0,0.0,0.0,1.79769313486e+308,0.0,0.0,0.0,0.05,0.0,0.0,0.0,1.79769313486e+308,0.0,0.0,0.0,1.79769313486e+308,0.0,0.0,0.0,0.05,0.0,0.0,0.0,0.0,0.0,0.0,0.0,0.0,0.0,0.0,0.0,0.0
1494527473350668217,343,1494527473830494578,gyro_link,0.0,0.0,0.0,1.0,1.79769313486e+308,0.0,0.0,0.0,1.79769313486e+308,0.0,0.0,0.0,0.05,0.0,0.0,0.0,1.79769313486e+308,0.0,0.0,0.0,1.79769313486e+308,0.0,0.0,0.0,0.05,0.0,0.0,0.0,0.0,0.0,0.0,0.0,0.0,0.0,0.0,0.0,0.0
1494527473369720267,344,1494527473850328856,gyro_link,0.0,0.0,0.0,1.0,1.79769313486e+308,0.0,0.0,0.0,1.79769313486e+308,0.0,0.0,0.0,0.05,0.0,0.0,0.0,1.79769313486e+308,0.0,0.0,0.0,1.79769313486e+308,0.0,0.0,0.0,0.05,0.0,0.0,0.0,0.0,0.0,0.0,0.0,0.0,0.0,0.0,0.0,0.0
1494527473384320309,345,1494527473870425006,gyro_link,0.0,0.0,0.0,1.0,1.79769313486e+308,0.0,0.0,0.0,1.79769313486e+308,0.0,0.0,0.0,0.05,0.0,0.0,0.0,1.79769313486e+308,0.0,0.0,0.0,1.79769313486e+308,0.0,0.0,0.0,0.05,0.0,0.0,0.0,0.0,0.0,0.0,0.0,0.0,0.0,0.0,0.0,0.0
1494527473406568469,346,1494527473890424783,gyro_link,0.0,0.0,0.0,1.0,1.79769313486e+308,0.0,0.0,0.0,1.79769313486e+308,0.0,0.0,0.0,0.05,0.0,0.0,0.0,1.79769313486e+308,0.0,0.0,0.0,1.79769313486e+308,0.0,0.0,0.0,0.05,0.0,0.0,0.0,0.0,0.0,0.0,0.0,0.0,0.0,0.0,0.0,0.0
1494527473429763170,347,1494527473911971000,gyro_link,0.0,0.0,0.0,1.0,1.79769313486e+308,0.0,0.0,0.0,1.79769313486e+308,0.0,0.0,0.0,0.05,0.0,0.0,0.00226892802759,1.79769313486e+308,0.0,0.0,0.0,1.79769313486e+308,0.0,0.0,0.0,0.05,0.0,0.0,0.0,0.0,0.0,0.0,0.0,0.0,0.0,0.0,0.0,0.0
1494527473449762553,348,1494527473931146993,gyro_link,0.0,0.0,0.0,1.0,1.79769313486e+308,0.0,0.0,0.0,1.79769313486e+308,0.0,0.0,0.0,0.05,0.0,0.0,0.00331612557879,1.79769313486e+308,0.0,0.0,0.0,1.79769313486e+308,0.0,0.0,0.0,0.05,0.0,0.0,0.0,0.0,0.0,0.0,0.0,0.0,0.0,0.0,0.0,0.0
1494527473474697525,349,1494527473951120895,gyro_link,0.0,0.0,8.72664624889e-05,0.999999996192,1.79769313486e+308,0.0,0.0,0.0,1.79769313486e+308,0.0,0.0,0.0,0.05,0.0,0.0,0.00174532925199,1.79769313486e+308,0.0,0.0,0.0,1.79769313486e+308,0.0,0.0,0.0,0.05,0.0,0.0,0.0,0.0,0.0,0.0,0.0,0.0,0.0,0.0,0.0,0.0
1494527473486952267,350,1494527473971009047,gyro_link,0.0,0.0,8.72664624889e-05,0.999999996192,1.79769313486e+308,0.0,0.0,0.0,1.79769313486e+308,0.0,0.0,0.0,0.05,0.0,0.0,0.000349065850399,1.79769313486e+308,0.0,0.0,0.0,1.79769313486e+308,0.0,0.0,0.0,0.05,0.0,0.0,0.0,0.0,0.0,0.0,0.0,0.0,0.0,0.0,0.0,0.0
1494527473507435289,351,1494527473991154197,gyro_link,0.0,0.0,8.72664624889e-05,0.999999996192,1.79769313486e+308,0.0,0.0,0.0,1.79769313486e+308,0.0,0.0,0.0,0.05,0.0,0.0,0.0012217304764,1.79769313486e+308,0.0,0.0,0.0,1.79769313486e+308,0.0,0.0,0.0,0.05,0.0,0.0,0.0,0.0,0.0,0.0,0.0,0.0,0.0,0.0,0.0,0.0
1494527473534098263,352,1494527474011921006,gyro_link,0.0,0.0,8.72664624889e-05,0.999999996192,1.79769313486e+308,0.0,0.0,0.0,1.79769313486e+308,0.0,0.0,0.0,0.05,0.0,0.0,0.00191986217719,1.79769313486e+308,0.0,0.0,0.0,1.79769313486e+308,0.0,0.0,0.0,0.05,0.0,0.0,0.0,0.0,0.0,0.0,0.0,0.0,0.0,0.0,0.0,0.0
1494527473549675731,353,1494527474032103489,gyro_link,0.0,0.0,8.72664624889e-05,0.999999996192,1.79769313486e+308,0.0,0.0,0.0,1.79769313486e+308,0.0,0.0,0.0,0.05,0.0,0.0,0.00174532925199,1.79769313486e+308,0.0,0.0,0.0,1.79769313486e+308,0.0,0.0,0.0,0.05,0.0,0.0,0.0,0.0,0.0,0.0,0.0,0.0,0.0,0.0,0.0,0.0
1494527473573703606,354,1494527474053866329,gyro_link,0.0,0.0,8.72664624889e-05,0.999999996192,1.79769313486e+308,0.0,0.0,0.0,1.79769313486e+308,0.0,0.0,0.0,0.05,0.0,0.0,0.000174532925199,1.79769313486e+308,0.0,0.0,0.0,1.79769313486e+308,0.0,0.0,0.0,0.05,0.0,0.0,0.0,0.0,0.0,0.0,0.0,0.0,0.0,0.0,0.0,0.0
1494527473610985310,355,1494527474071864544,gyro_link,0.0,0.0,8.72664624889e-05,0.999999996192,1.79769313486e+308,0.0,0.0,0.0,1.79769313486e+308,0.0,0.0,0.0,0.05,0.0,0.0,0.00383972435439,1.79769313486e+308,0.0,0.0,0.0,1.79769313486e+308,0.0,0.0,0.0,0.05,0.0,0.0,0.0,0.0,0.0,0.0,0.0,0.0,0.0,0.0,0.0,0.0
1494527473628122598,356,1494527474092519688,gyro_link,0.0,0.0,0.000436332299153,0.999999904807,1.79769313486e+308,0.0,0.0,0.0,1.79769313486e+308,0.0,0.0,0.0,0.05,0.0,0.0,0.0247836753783,1.79769313486e+308,0.0,0.0,0.0,1.79769313486e+308,0.0,0.0,0.0,0.05,0.0,0.0,0.0,0.0,0.0,0.0,0.0,0.0,0.0,0.0,0.0,0.0
1494527473628141086,357,1494527474110652527,gyro_link,0.0,0.0,0.000523598751674,0.999999862922,1.79769313486e+308,0.0,0.0,0.0,1.79769313486e+308,0.0,0.0,0.0,0.05,0.0,0.0,0.00837758040957,1.79769313486e+308,0.0,0.0,0.0,1.79769313486e+308,0.0,0.0,0.0,0.05,0.0,0.0,0.0,0.0,0.0,0.0,0.0,0.0,0.0,0.0,0.0,0.0
1494527473653379429,358,1494527474130480722,gyro_link,0.0,0.0,0.000610865200207,0.999999813422,1.79769313486e+308,0.0,0.0,0.0,1.79769313486e+308,0.0,0.0,0.0,0.05,0.0,0.0,0.00331612557879,1.79769313486e+308,0.0,0.0,0.0,1.79769313486e+308,0.0,0.0,0.0,0.05,0.0,0.0,0.0,0.0,0.0,0.0,0.0,0.0,0.0,0.0,0.0,0.0
1494527473666722824,359,1494527474150639122,gyro_link,0.0,0.0,0.000610865200207,0.999999813422,1.79769313486e+308,0.0,0.0,0.0,1.79769313486e+308,0.0,0.0,0.0,0.05,0.0,0.0,-0.000523598775598,1.79769313486e+308,0.0,0.0,0.0,1.79769313486e+308,0.0,0.0,0.0,0.05,0.0,0.0,0.0,0.0,0.0,0.0,0.0,0.0,0.0,0.0,0.0,0.0
1494527473686962481,360,1494527474171266017,gyro_link,0.0,0.0,0.000523598751674,0.999999862922,1.79769313486e+308,0.0,0.0,0.0,1.79769313486e+308,0.0,0.0,0.0,0.05,0.0,0.0,-0.0013962634016,1.79769313486e+308,0.0,0.0,0.0,1.79769313486e+308,0.0,0.0,0.0,0.05,0.0,0.0,0.0,0.0,0.0,0.0,0.0,0.0,0.0,0.0,0.0,0.0
1494527473705237806,361,1494527474190592176,gyro_link,0.0,0.0,0.000523598751674,0.999999862922,1.79769313486e+308,0.0,0.0,0.0,1.79769313486e+308,0.0,0.0,0.0,0.05,0.0,0.0,-0.00174532925199,1.79769313486e+308,0.0,0.0,0.0,1.79769313486e+308,0.0,0.0,0.0,0.05,0.0,0.0,0.0,0.0,0.0,0.0,0.0,0.0,0.0,0.0,0.0,0.0
1494527473726007995,362,1494527474210573161,gyro_link,0.0,0.0,0.000610865200207,0.999999813422,1.79769313486e+308,0.0,0.0,0.0,1.79769313486e+308,0.0,0.0,0.0,0.05,0.0,0.0,0.00942477796077,1.79769313486e+308,0.0,0.0,0.0,1.79769313486e+308,0.0,0.0,0.0,0.05,0.0,0.0,0.0,0.0,0.0,0.0,0.0,0.0,0.0,0.0,0.0,0.0
1494527473744398177,363,1494527474230340731,gyro_link,0.0,0.0,0.000785398082652,0.999999691575,1.79769313486e+308,0.0,0.0,0.0,1.79769313486e+308,0.0,0.0,0.0,0.05,0.0,0.0,0.0183259571459,1.79769313486e+308,0.0,0.0,0.0,1.79769313486e+308,0.0,0.0,0.0,0.05,0.0,0.0,0.0,0.0,0.0,0.0,0.0,0.0,0.0,0.0,0.0,0.0
1494527473765360888,364,1494527474250518881,gyro_link,0.0,0.0,0.000959930941173,0.999999539266,1.79769313486e+308,0.0,0.0,0.0,1.79769313486e+308,0.0,0.0,0.0,0.05,0.0,0.0,0.0174532925199,1.79769313486e+308,0.0,0.0,0.0,1.79769313486e+308,0.0,0.0,0.0,0.05,0.0,0.0,0.0,0.0,0.0,0.0,0.0,0.0,0.0,0.0,0.0,0.0
1494527473786371098,365,1494527474271784393,gyro_link,0.0,0.0,0.00113446377045,0.999999356496,1.79769313486e+308,0.0,0.0,0.0,1.79769313486e+308,0.0,0.0,0.0,0.05,0.0,0.0,0.00698131700798,1.79769313486e+308,0.0,0.0,0.0,1.79769313486e+308,0.0,0.0,0.0,0.05,0.0,0.0,0.0,0.0,0.0,0.0,0.0,0.0,0.0,0.0,0.0,0.0
1494527473805802273,366,1494527474291188093,gyro_link,0.0,0.0,0.000959930941173,0.999999539266,1.79769313486e+308,0.0,0.0,0.0,1.79769313486e+308,0.0,0.0,0.0,0.05,0.0,0.0,-0.0258308729295,1.79769313486e+308,0.0,0.0,0.0,1.79769313486e+308,0.0,0.0,0.0,0.05,0.0,0.0,0.0,0.0,0.0,0.0,0.0,0.0,0.0,0.0,0.0,0.0
1494527473826355604,367,1494527474311342242,gyro_link,0.0,0.0,0.000523598751674,0.999999862922,1.79769313486e+308,0.0,0.0,0.0,1.79769313486e+308,0.0,0.0,0.0,0.05,0.0,0.0,-0.049916416607,1.79769313486e+308,0.0,0.0,0.0,1.79769313486e+308,0.0,0.0,0.0,0.05,0.0,0.0,0.0,0.0,0.0,0.0,0.0,0.0,0.0,0.0,0.0,0.0
1494527473846729419,368,1494527474331141813,gyro_link,0.0,0.0,0.0,1.0,1.79769313486e+308,0.0,0.0,0.0,1.79769313486e+308,0.0,0.0,0.0,0.05,0.0,0.0,-0.0520108117094,1.79769313486e+308,0.0,0.0,0.0,1.79769313486e+308,0.0,0.0,0.0,0.05,0.0,0.0,0.0,0.0,0.0,0.0,0.0,0.0,0.0,0.0,0.0,0.0
1494527473866218231,369,1494527474351212630,gyro_link,0.0,0.0,-0.00034906584331,0.999999939077,1.79769313486e+308,0.0,0.0,0.0,1.79769313486e+308,0.0,0.0,0.0,0.05,0.0,0.0,-0.0364773813667,1.79769313486e+308,0.0,0.0,0.0,1.79769313486e+308,0.0,0.0,0.0,0.05,0.0,0.0,0.0,0.0,0.0,0.0,0.0,0.0,0.0,0.0,0.0,0.0
1494527473888603486,370,1494527474371789692,gyro_link,0.0,0.0,-0.000523598751674,0.999999862922,1.79769313486e+308,0.0,0.0,0.0,1.79769313486e+308,0.0,0.0,0.0,0.05,0.0,0.0,-0.00558505360638,1.79769313486e+308,0.0,0.0,0.0,1.79769313486e+308,0.0,0.0,0.0,0.05,0.0,0.0,0.0,0.0,0.0,0.0,0.0,0.0,0.0,0.0,0.0,0.0
1494527473906178165,371,1494527474391190225,gyro_link,0.0,0.0,-0.000261799384809,0.999999965731,1.79769313486e+308,0.0,0.0,0.0,1.79769313486e+308,0.0,0.0,0.0,0.05,0.0,0.0,0.0368264472171,1.79769313486e+308,0.0,0.0,0.0,1.79769313486e+308,0.0,0.0,0.0,0.05,0.0,0.0,0.0,0.0,0.0,0.0,0.0,0.0,0.0,0.0,0.0,0.0
1494527473925593865,372,1494527474411208126,gyro_link,0.0,0.0,0.000174532924313,0.999999984769,1.79769313486e+308,0.0,0.0,0.0,1.79769313486e+308,0.0,0.0,0.0,0.05,0.0,0.0,0.0378736447683,1.79769313486e+308,0.0,0.0,0.0,1.79769313486e+308,0.0,0.0,0.0,0.05,0.0,0.0,0.0,0.0,0.0,0.0,0.0,0.0,0.0,0.0,0.0,0.0
1494527473946203097,373,1494527474431140653,gyro_link,0.0,0.0,0.00034906584331,0.999999939077,1.79769313486e+308,0.0,0.0,0.0,1.79769313486e+308,0.0,0.0,0.0,0.05,0.0,0.0,0.0178023583703,1.79769313486e+308,0.0,0.0,0.0,1.79769313486e+308,0.0,0.0,0.0,0.05,0.0,0.0,0.0,0.0,0.0,0.0,0.0,0.0,0.0,0.0,0.0,0.0
1494527473967014028,374,1494527474451472634,gyro_link,0.0,0.0,0.000523598751674,0.999999862922,1.79769313486e+308,0.0,0.0,0.0,1.79769313486e+308,0.0,0.0,0.0,0.05,0.0,0.0,0.0197222205475,1.79769313486e+308,0.0,0.0,0.0,1.79769313486e+308,0.0,0.0,0.0,0.05,0.0,0.0,0.0,0.0,0.0,0.0,0.0,0.0,0.0,0.0,0.0,0.0
1494527473987506843,375,1494527474472130903,gyro_link,0.0,0.0,0.000785398082652,0.999999691575,1.79769313486e+308,0.0,0.0,0.0,1.79769313486e+308,0.0,0.0,0.0,0.05,0.0,0.0,0.0108210413624,1.79769313486e+308,0.0,0.0,0.0,1.79769313486e+308,0.0,0.0,0.0,0.05,0.0,0.0,0.0,0.0,0.0,0.0,0.0,0.0,0.0,0.0,0.0,0.0
1494527474009474907,376,1494527474493156210,gyro_link,0.0,0.0,0.000785398082652,0.999999691575,1.79769313486e+308,0.0,0.0,0.0,1.79769313486e+308,0.0,0.0,0.0,0.05,0.0,0.0,-0.00226892802759,1.79769313486e+308,0.0,0.0,0.0,1.79769313486e+308,0.0,0.0,0.0,0.05,0.0,0.0,0.0,0.0,0.0,0.0,0.0,0.0,0.0,0.0,0.0,0.0
1494527474026934245,377,1494527474511670378,gyro_link,0.0,0.0,0.000785398082652,0.999999691575,1.79769313486e+308,0.0,0.0,0.0,1.79769313486e+308,0.0,0.0,0.0,0.05,0.0,0.0,0.011344640138,1.79769313486e+308,0.0,0.0,0.0,1.79769313486e+308,0.0,0.0,0.0,0.05,0.0,0.0,0.0,0.0,0.0,0.0,0.0,0.0,0.0,0.0,0.0,0.0
1494527474048709776,378,1494527474532218898,gyro_link,0.0,0.0,0.0010471973598,0.999999451689,1.79769313486e+308,0.0,0.0,0.0,1.79769313486e+308,0.0,0.0,0.0,0.05,0.0,0.0,0.0287979326579,1.79769313486e+308,0.0,0.0,0.0,1.79769313486e+308,0.0,0.0,0.0,0.05,0.0,0.0,0.0,0.0,0.0,0.0,0.0,0.0,0.0,0.0,0.0,0.0
1494527474068934593,379,1494527474551297769,gyro_link,0.0,0.0,0.00130899656517,0.999999143264,1.79769313486e+308,0.0,0.0,0.0,1.79769313486e+308,0.0,0.0,0.0,0.05,0.0,0.0,0.0193731546971,1.79769313486e+308,0.0,0.0,0.0,1.79769313486e+308,0.0,0.0,0.0,0.05,0.0,0.0,0.0,0.0,0.0,0.0,0.0,0.0,0.0,0.0,0.0,0.0
1494527474086298343,380,1494527474572155285,gyro_link,0.0,0.0,0.00122173017247,0.999999253687,1.79769313486e+308,0.0,0.0,0.0,1.79769313486e+308,0.0,0.0,0.0,0.05,0.0,0.0,-0.0146607657168,1.79769313486e+308,0.0,0.0,0.0,1.79769313486e+308,0.0,0.0,0.0,0.05,0.0,0.0,0.0,0.0,0.0,0.0,0.0,0.0,0.0,0.0,0.0,0.0
1494527474109271928,381,1494527474591926814,gyro_link,0.0,0.0,0.000959930941173,0.999999539266,1.79769313486e+308,0.0,0.0,0.0,1.79769313486e+308,0.0,0.0,0.0,0.05,0.0,0.0,-0.0296705972839,1.79769313486e+308,0.0,0.0,0.0,1.79769313486e+308,0.0,0.0,0.0,0.05,0.0,0.0,0.0,0.0,0.0,0.0,0.0,0.0,0.0,0.0,0.0,0.0
1494527474128564486,382,1494527474612126339,gyro_link,0.0,0.0,0.000785398082652,0.999999691575,1.79769313486e+308,0.0,0.0,0.0,1.79769313486e+308,0.0,0.0,0.0,0.05,0.0,0.0,-0.0115191730632,1.79769313486e+308,0.0,0.0,0.0,1.79769313486e+308,0.0,0.0,0.0,0.05,0.0,0.0,0.0,0.0,0.0,0.0,0.0,0.0,0.0,0.0,0.0,0.0
1494527474148331631,383,1494527474631511455,gyro_link,0.0,0.0,0.000872664515235,0.999999619228,1.79769313486e+308,0.0,0.0,0.0,1.79769313486e+308,0.0,0.0,0.0,0.05,0.0,0.0,0.0108210413624,1.79769313486e+308,0.0,0.0,0.0,1.79769313486e+308,0.0,0.0,0.0,0.05,0.0,0.0,0.0,0.0,0.0,0.0,0.0,0.0,0.0,0.0,0.0,0.0
1494527474167308577,384,1494527474652634761,gyro_link,0.0,0.0,0.000959930941173,0.999999539266,1.79769313486e+308,0.0,0.0,0.0,1.79769313486e+308,0.0,0.0,0.0,0.05,0.0,0.0,-0.0012217304764,1.79769313486e+308,0.0,0.0,0.0,1.79769313486e+308,0.0,0.0,0.0,0.05,0.0,0.0,0.0,0.0,0.0,0.0,0.0,0.0,0.0,0.0,0.0,0.0
1494527474187143488,385,1494527474671584549,gyro_link,0.0,0.0,0.000785398082652,0.999999691575,1.79769313486e+308,0.0,0.0,0.0,1.79769313486e+308,0.0,0.0,0.0,0.05,0.0,0.0,-0.0293215314335,1.79769313486e+308,0.0,0.0,0.0,1.79769313486e+308,0.0,0.0,0.0,0.05,0.0,0.0,0.0,0.0,0.0,0.0,0.0,0.0,0.0,0.0,0.0,0.0
1494527474206414784,386,1494527474691161663,gyro_link,0.0,0.0,0.000436332299153,0.999999904807,1.79769313486e+308,0.0,0.0,0.0,1.79769313486e+308,0.0,0.0,0.0,0.05,0.0,0.0,-0.0256563400043,1.79769313486e+308,0.0,0.0,0.0,1.79769313486e+308,0.0,0.0,0.0,0.05,0.0,0.0,0.0,0.0,0.0,0.0,0.0,0.0,0.0,0.0,0.0,0.0
1494527474229647413,387,1494527474712265844,gyro_link,0.0,0.0,0.00034906584331,0.999999939077,1.79769313486e+308,0.0,0.0,0.0,1.79769313486e+308,0.0,0.0,0.0,0.05,0.0,0.0,-0.00977384381117,1.79769313486e+308,0.0,0.0,0.0,1.79769313486e+308,0.0,0.0,0.0,0.05,0.0,0.0,0.0,0.0,0.0,0.0,0.0,0.0,0.0,0.0,0.0,0.0
1494527474246896952,388,1494527474732351203,gyro_link,0.0,0.0,0.000261799384809,0.999999965731,1.79769313486e+308,0.0,0.0,0.0,1.79769313486e+308,0.0,0.0,0.0,0.05,0.0,0.0,-0.012217304764,1.79769313486e+308,0.0,0.0,0.0,1.79769313486e+308,0.0,0.0,0.0,0.05,0.0,0.0,0.0,0.0,0.0,0.0,0.0,0.0,0.0,0.0,0.0,0.0
1494527474265881240,389,1494527474751383699,gyro_link,0.0,0.0,0.000174532924313,0.999999984769,1.79769313486e+308,0.0,0.0,0.0,1.79769313486e+308,0.0,0.0,0.0,0.05,0.0,0.0,0.000523598775598,1.79769313486e+308,0.0,0.0,0.0,1.79769313486e+308,0.0,0.0,0.0,0.05,0.0,0.0,0.0,0.0,0.0,0.0,0.0,0.0,0.0,0.0,0.0,0.0
1494527474292107400,390,1494527474771109603,gyro_link,0.0,0.0,0.000261799384809,0.999999965731,1.79769313486e+308,0.0,0.0,0.0,1.79769313486e+308,0.0,0.0,0.0,0.05,0.0,0.0,0.000523598775598,1.79769313486e+308,0.0,0.0,0.0,1.79769313486e+308,0.0,0.0,0.0,0.05,0.0,0.0,0.0,0.0,0.0,0.0,0.0,0.0,0.0,0.0,0.0,0.0
1494527474307615361,391,1494527474791123129,gyro_link,0.0,0.0,0.000174532924313,0.999999984769,1.79769313486e+308,0.0,0.0,0.0,1.79769313486e+308,0.0,0.0,0.0,0.05,0.0,0.0,-0.00733038285838,1.79769313486e+308,0.0,0.0,0.0,1.79769313486e+308,0.0,0.0,0.0,0.05,0.0,0.0,0.0,0.0,0.0,0.0,0.0,0.0,0.0,0.0,0.0,0.0
1494527474327120045,392,1494527474811662233,gyro_link,0.0,0.0,0.000174532924313,0.999999984769,1.79769313486e+308,0.0,0.0,0.0,1.79769313486e+308,0.0,0.0,0.0,0.05,0.0,0.0,0.0,1.79769313486e+308,0.0,0.0,0.0,1.79769313486e+308,0.0,0.0,0.0,0.05,0.0,0.0,0.0,0.0,0.0,0.0,0.0,0.0,0.0,0.0,0.0,0.0
1494527474392449308,393,1494527474872255639,gyro_link,0.0,0.0,0.000261799384809,0.999999965731,1.79769313486e+308,0.0,0.0,0.0,1.79769313486e+308,0.0,0.0,0.0,0.05,0.0,0.0,-0.00261799387799,1.79769313486e+308,0.0,0.0,0.0,1.79769313486e+308,0.0,0.0,0.0,0.05,0.0,0.0,0.0,0.0,0.0,0.0,0.0,0.0,0.0,0.0,0.0,0.0
1494527474407856960,394,1494527474892219499,gyro_link,0.0,0.0,8.72664624889e-05,0.999999996192,1.79769313486e+308,0.0,0.0,0.0,1.79769313486e+308,0.0,0.0,0.0,0.05,0.0,0.0,-0.0211184839491,1.79769313486e+308,0.0,0.0,0.0,1.79769313486e+308,0.0,0.0,0.0,0.05,0.0,0.0,0.0,0.0,0.0,0.0,0.0,0.0,0.0,0.0,0.0,0.0
1494527474428203410,395,1494527474912239651,gyro_link,0.0,0.0,-8.7266462489e-05,0.999999996192,1.79769313486e+308,0.0,0.0,0.0,1.79769313486e+308,0.0,0.0,0.0,0.05,0.0,0.0,-0.0186750229963,1.79769313486e+308,0.0,0.0,0.0,1.79769313486e+308,0.0,0.0,0.0,0.05,0.0,0.0,0.0,0.0,0.0,0.0,0.0,0.0,0.0,0.0,0.0,0.0
1494527474446971277,396,1494527474932650172,gyro_link,0.0,0.0,-8.7266462489e-05,0.999999996192,1.79769313486e+308,0.0,0.0,0.0,1.79769313486e+308,0.0,0.0,0.0,0.05,0.0,0.0,0.00314159265359,1.79769313486e+308,0.0,0.0,0.0,1.79769313486e+308,0.0,0.0,0.0,0.05,0.0,0.0,0.0,0.0,0.0,0.0,0.0,0.0,0.0,0.0,0.0,0.0
1494527474466871378,397,1494527474952591949,gyro_link,0.0,0.0,-8.7266462489e-05,0.999999996192,1.79769313486e+308,0.0,0.0,0.0,1.79769313486e+308,0.0,0.0,0.0,0.05,0.0,0.0,0.00558505360638,1.79769313486e+308,0.0,0.0,0.0,1.79769313486e+308,0.0,0.0,0.0,0.05,0.0,0.0,0.0,0.0,0.0,0.0,0.0,0.0,0.0,0.0,0.0,0.0
1494527474486913880,398,1494527474972104231,gyro_link,0.0,0.0,0.0,1.0,1.79769313486e+308,0.0,0.0,0.0,1.79769313486e+308,0.0,0.0,0.0,0.05,0.0,0.0,0.00349065850399,1.79769313486e+308,0.0,0.0,0.0,1.79769313486e+308,0.0,0.0,0.0,0.05,0.0,0.0,0.0,0.0,0.0,0.0,0.0,0.0,0.0,0.0,0.0,0.0
1494527474506409707,399,1494527474992199715,gyro_link,0.0,0.0,0.000174532924313,0.999999984769,1.79769313486e+308,0.0,0.0,0.0,1.79769313486e+308,0.0,0.0,0.0,0.05,0.0,0.0,0.0211184839491,1.79769313486e+308,0.0,0.0,0.0,1.79769313486e+308,0.0,0.0,0.0,0.05,0.0,0.0,0.0,0.0,0.0,0.0,0.0,0.0,0.0,0.0,0.0,0.0
1494527474527983701,400,1494527475012276741,gyro_link,0.0,0.0,0.00034906584331,0.999999939077,1.79769313486e+308,0.0,0.0,0.0,1.79769313486e+308,0.0,0.0,0.0,0.05,0.0,0.0,0.0176278254451,1.79769313486e+308,0.0,0.0,0.0,1.79769313486e+308,0.0,0.0,0.0,0.05,0.0,0.0,0.0,0.0,0.0,0.0,0.0,0.0,0.0,0.0,0.0,0.0
1494527474546624019,401,1494527475032737804,gyro_link,0.0,0.0,0.00034906584331,0.999999939077,1.79769313486e+308,0.0,0.0,0.0,1.79769313486e+308,0.0,0.0,0.0,0.05,0.0,0.0,-0.000174532925199,1.79769313486e+308,0.0,0.0,0.0,1.79769313486e+308,0.0,0.0,0.0,0.05,0.0,0.0,0.0,0.0,0.0,0.0,0.0,0.0,0.0,0.0,0.0,0.0
1494527474567448824,402,1494527475052064088,gyro_link,0.0,0.0,0.000436332299153,0.999999904807,1.79769313486e+308,0.0,0.0,0.0,1.79769313486e+308,0.0,0.0,0.0,0.05,0.0,0.0,0.00471238898038,1.79769313486e+308,0.0,0.0,0.0,1.79769313486e+308,0.0,0.0,0.0,0.05,0.0,0.0,0.0,0.0,0.0,0.0,0.0,0.0,0.0,0.0,0.0,0.0
1494527474588902560,403,1494527475072467694,gyro_link,0.0,0.0,0.000523598751674,0.999999862922,1.79769313486e+308,0.0,0.0,0.0,1.79769313486e+308,0.0,0.0,0.0,0.05,0.0,0.0,0.00994837673637,1.79769313486e+308,0.0,0.0,0.0,1.79769313486e+308,0.0,0.0,0.0,0.05,0.0,0.0,0.0,0.0,0.0,0.0,0.0,0.0,0.0,0.0,0.0,0.0
1494527474608134981,404,1494527475092865508,gyro_link,0.0,0.0,0.000610865200207,0.999999813422,1.79769313486e+308,0.0,0.0,0.0,1.79769313486e+308,0.0,0.0,0.0,0.05,0.0,0.0,0.00715584993318,1.79769313486e+308,0.0,0.0,0.0,1.79769313486e+308,0.0,0.0,0.0,0.05,0.0,0.0,0.0,0.0,0.0,0.0,0.0,0.0,0.0,0.0,0.0,0.0
1494527474626434893,405,1494527475112022586,gyro_link,0.0,0.0,0.000785398082652,0.999999691575,1.79769313486e+308,0.0,0.0,0.0,1.79769313486e+308,0.0,0.0,0.0,0.05,0.0,0.0,0.0254818070791,1.79769313486e+308,0.0,0.0,0.0,1.79769313486e+308,0.0,0.0,0.0,0.05,0.0,0.0,0.0,0.0,0.0,0.0,0.0,0.0,0.0,0.0,0.0,0.0
1494527474645392244,406,1494527475131935697,gyro_link,0.0,0.0,0.000959930941173,0.999999539266,1.79769313486e+308,0.0,0.0,0.0,1.79769313486e+308,0.0,0.0,0.0,0.05,0.0,0.0,0.0160570291183,1.79769313486e+308,0.0,0.0,0.0,1.79769313486e+308,0.0,0.0,0.0,0.05,0.0,0.0,0.0,0.0,0.0,0.0,0.0,0.0,0.0,0.0,0.0,0.0
1494527474666770861,407,1494527475152072139,gyro_link,0.0,0.0,0.000959930941173,0.999999539266,1.79769313486e+308,0.0,0.0,0.0,1.79769313486e+308,0.0,0.0,0.0,0.05,0.0,0.0,0.0,1.79769313486e+308,0.0,0.0,0.0,1.79769313486e+308,0.0,0.0,0.0,0.05,0.0,0.0,0.0,0.0,0.0,0.0,0.0,0.0,0.0,0.0,0.0,0.0
1494527474701790583,408,1494527475173421150,gyro_link,0.0,0.0,0.0010471973598,0.999999451689,1.79769313486e+308,0.0,0.0,0.0,1.79769313486e+308,0.0,0.0,0.0,0.05,0.0,0.0,0.00157079632679,1.79769313486e+308,0.0,0.0,0.0,1.79769313486e+308,0.0,0.0,0.0,0.05,0.0,0.0,0.0,0.0,0.0,0.0,0.0,0.0,0.0,0.0,0.0,0.0
1494527474709601988,409,1494527475192270232,gyro_link,0.0,0.0,0.000785398082652,0.999999691575,1.79769313486e+308,0.0,0.0,0.0,1.79769313486e+308,0.0,0.0,0.0,0.05,0.0,0.0,-0.0364773813667,1.79769313486e+308,0.0,0.0,0.0,1.79769313486e+308,0.0,0.0,0.0,0.05,0.0,0.0,0.0,0.0,0.0,0.0,0.0,0.0,0.0,0.0,0.0,0.0
1494527474729439381,410,1494527475213588619,gyro_link,0.0,0.0,8.72664624889e-05,0.999999996192,1.79769313486e+308,0.0,0.0,0.0,1.79769313486e+308,0.0,0.0,0.0,0.05,0.0,0.0,-0.0415388361975,1.79769313486e+308,0.0,0.0,0.0,1.79769313486e+308,0.0,0.0,0.0,0.05,0.0,0.0,0.0,0.0,0.0,0.0,0.0,0.0,0.0,0.0,0.0,0.0
1494527474748549153,411,1494527475233657853,gyro_link,0.0,0.0,-0.00034906584331,0.999999939077,1.79769313486e+308,0.0,0.0,0.0,1.79769313486e+308,0.0,0.0,0.0,0.05,0.0,0.0,-0.0486946861306,1.79769313486e+308,0.0,0.0,0.0,1.79769313486e+308,0.0,0.0,0.0,0.05,0.0,0.0,0.0,0.0,0.0,0.0,0.0,0.0,0.0,0.0,0.0,0.0
1494527474766521459,412,1494527475251933441,gyro_link,0.0,0.0,-0.000698131644088,0.999999756306,1.79769313486e+308,0.0,0.0,0.0,1.79769313486e+308,0.0,0.0,0.0,0.05,0.0,0.0,-0.0274016692563,1.79769313486e+308,0.0,0.0,0.0,1.79769313486e+308,0.0,0.0,0.0,0.05,0.0,0.0,0.0,0.0,0.0,0.0,0.0,0.0,0.0,0.0,0.0,0.0
1494527474788001241,413,1494527475272066091,gyro_link,0.0,0.0,-0.000785398082652,0.999999691575,1.79769313486e+308,0.0,0.0,0.0,1.79769313486e+308,0.0,0.0,0.0,0.05,0.0,0.0,-0.00436332312999,1.79769313486e+308,0.0,0.0,0.0,1.79769313486e+308,0.0,0.0,0.0,0.05,0.0,0.0,0.0,0.0,0.0,0.0,0.0,0.0,0.0,0.0,0.0,0.0
1494527474813668940,414,1494527475292318698,gyro_link,0.0,0.0,-0.000698131644088,0.999999756306,1.79769313486e+308,0.0,0.0,0.0,1.79769313486e+308,0.0,0.0,0.0,0.05,0.0,0.0,0.0125663706144,1.79769313486e+308,0.0,0.0,0.0,1.79769313486e+308,0.0,0.0,0.0,0.05,0.0,0.0,0.0,0.0,0.0,0.0,0.0,0.0,0.0,0.0,0.0,0.0
1494527474827629947,415,1494527475312295850,gyro_link,0.0,0.0,-0.000436332299153,0.999999904807,1.79769313486e+308,0.0,0.0,0.0,1.79769313486e+308,0.0,0.0,0.0,0.05,0.0,0.0,0.0300196631343,1.79769313486e+308,0.0,0.0,0.0,1.79769313486e+308,0.0,0.0,0.0,0.05,0.0,0.0,0.0,0.0,0.0,0.0,0.0,0.0,0.0,0.0,0.0,0.0
1494527474848975935,416,1494527475333063702,gyro_link,0.0,0.0,-0.000174532924313,0.999999984769,1.79769313486e+308,0.0,0.0,0.0,1.79769313486e+308,0.0,0.0,0.0,0.05,0.0,0.0,0.0321140582367,1.79769313486e+308,0.0,0.0,0.0,1.79769313486e+308,0.0,0.0,0.0,0.05,0.0,0.0,0.0,0.0,0.0,0.0,0.0,0.0,0.0,0.0,0.0,0.0
1494527474866739496,417,1494527475352134114,gyro_link,0.0,0.0,0.000261799384809,0.999999965731,1.79769313486e+308,0.0,0.0,0.0,1.79769313486e+308,0.0,0.0,0.0,0.05,0.0,0.0,0.0432841654495,1.79769313486e+308,0.0,0.0,0.0,1.79769313486e+308,0.0,0.0,0.0,0.05,0.0,0.0,0.0,0.0,0.0,0.0,0.0,0.0,0.0,0.0,0.0,0.0
1494527474886274910,418,1494527475371929101,gyro_link,0.0,0.0,0.000436332299153,0.999999904807,1.79769313486e+308,0.0,0.0,0.0,1.79769313486e+308,0.0,0.0,0.0,0.05,0.0,0.0,0.00506145483078,1.79769313486e+308,0.0,0.0,0.0,1.79769313486e+308,0.0,0.0,0.0,0.05,0.0,0.0,0.0,0.0,0.0,0.0,0.0,0.0,0.0,0.0,0.0,0.0
1494527474916099235,419,1494527475391897003,gyro_link,0.0,0.0,0.0,1.0,1.79769313486e+308,0.0,0.0,0.0,1.79769313486e+308,0.0,0.0,0.0,0.05,0.0,0.0,-0.056897733615,1.79769313486e+308,0.0,0.0,0.0,1.79769313486e+308,0.0,0.0,0.0,0.05,0.0,0.0,0.0,0.0,0.0,0.0,0.0,0.0,0.0,0.0,0.0,0.0
1494527474931123381,420,1494527475413108100,gyro_link,0.0,0.0,-0.000872664515235,0.999999619228,1.79769313486e+308,0.0,0.0,0.0,1.79769313486e+308,0.0,0.0,0.0,0.05,0.0,0.0,-0.0537561409614,1.79769313486e+308,0.0,0.0,0.0,1.79769313486e+308,0.0,0.0,0.0,0.05,0.0,0.0,0.0,0.0,0.0,0.0,0.0,0.0,0.0,0.0,0.0,0.0
1494527474952037394,421,1494527475432874338,gyro_link,0.0,0.0,-0.00139626294791,0.999999025224,1.79769313486e+308,0.0,0.0,0.0,1.79769313486e+308,0.0,0.0,0.0,0.05,0.0,0.0,-0.0561996019142,1.79769313486e+308,0.0,0.0,0.0,1.79769313486e+308,0.0,0.0,0.0,0.05,0.0,0.0,0.0,0.0,0.0,0.0,0.0,0.0,0.0,0.0,0.0,0.0
1494527474966461796,422,1494527475453029863,gyro_link,0.0,0.0,-0.0019198609978,0.999998157065,1.79769313486e+308,0.0,0.0,0.0,1.79769313486e+308,0.0,0.0,0.0,0.05,0.0,0.0,-0.0520108117094,1.79769313486e+308,0.0,0.0,0.0,1.79769313486e+308,0.0,0.0,0.0,0.05,0.0,0.0,0.0,0.0,0.0,0.0,0.0,0.0,0.0,0.0,0.0,0.0
1494527474987101673,423,1494527475472906932,gyro_link,0.0,0.0,-0.00209439357122,0.999997806755,1.79769313486e+308,0.0,0.0,0.0,1.79769313486e+308,0.0,0.0,0.0,0.05,0.0,0.0,-0.00488692190558,1.79769313486e+308,0.0,0.0,0.0,1.79769313486e+308,0.0,0.0,0.0,0.05,0.0,0.0,0.0,0.0,0.0,0.0,0.0,0.0,0.0,0.0,0.0,0.0
1494527475008419210,424,1494527475492980500,gyro_link,0.0,0.0,-0.0019198609978,0.999998157065,1.79769313486e+308,0.0,0.0,0.0,1.79769313486e+308,0.0,0.0,0.0,0.05,0.0,0.0,0.0200712863979,1.79769313486e+308,0.0,0.0,0.0,1.79769313486e+308,0.0,0.0,0.0,0.05,0.0,0.0,0.0,0.0,0.0,0.0,0.0,0.0,0.0,0.0,0.0,0.0
1494527475032223287,425,1494527475511853956,gyro_link,0.0,0.0,-0.0017453283659,0.999998476913,1.79769313486e+308,0.0,0.0,0.0,1.79769313486e+308,0.0,0.0,0.0,0.05,0.0,0.0,0.0174532925199,1.79769313486e+308,0.0,0.0,0.0,1.79769313486e+308,0.0,0.0,0.0,0.05,0.0,0.0,0.0,0.0,0.0,0.0,0.0,0.0,0.0,0.0,0.0,0.0
1494527475047594371,426,1494527475532922054,gyro_link,0.0,0.0,-0.00165806202968,0.999998625414,1.79769313486e+308,0.0,0.0,0.0,1.79769313486e+308,0.0,0.0,0.0,0.05,0.0,0.0,0.00575958653158,1.79769313486e+308,0.0,0.0,0.0,1.79769313486e+308,0.0,0.0,0.0,0.05,0.0,0.0,0.0,0.0,0.0,0.0,0.0,0.0,0.0,0.0,0.0,0.0
1494527475070430810,427,1494527475556113379,gyro_link,0.0,0.0,-0.00148352932002,0.99999889957,1.79769313486e+308,0.0,0.0,0.0,1.79769313486e+308,0.0,0.0,0.0,0.05,0.0,0.0,0.0186750229963,1.79769313486e+308,0.0,0.0,0.0,1.79769313486e+308,0.0,0.0,0.0,0.05,0.0,0.0,0.0,0.0,0.0,0.0,0.0,0.0,0.0,0.0,0.0,0.0
1494527475089864011,428,1494527475573315353,gyro_link,0.0,0.0,-0.00130899656517,0.999999143264,1.79769313486e+308,0.0,0.0,0.0,1.79769313486e+308,0.0,0.0,0.0,0.05,0.0,0.0,0.0204203522483,1.79769313486e+308,0.0,0.0,0.0,1.79769313486e+308,0.0,0.0,0.0,0.05,0.0,0.0,0.0,0.0,0.0,0.0,0.0,0.0,0.0,0.0,0.0,0.0
1494527475110460384,429,1494527475592964134,gyro_link,0.0,0.0,-0.00113446377045,0.999999356496,1.79769313486e+308,0.0,0.0,0.0,1.79769313486e+308,0.0,0.0,0.0,0.05,0.0,0.0,-0.000174532925199,1.79769313486e+308,0.0,0.0,0.0,1.79769313486e+308,0.0,0.0,0.0,0.05,0.0,0.0,0.0,0.0,0.0,0.0,0.0,0.0,0.0,0.0,0.0,0.0
1494527475129270339,430,1494527475613068785,gyro_link,0.0,0.0,-0.00122173017247,0.999999253687,1.79769313486e+308,0.0,0.0,0.0,1.79769313486e+308,0.0,0.0,0.0,0.05,0.0,0.0,-0.00279252680319,1.79769313486e+308,0.0,0.0,0.0,1.79769313486e+308,0.0,0.0,0.0,0.05,0.0,0.0,0.0,0.0,0.0,0.0,0.0,0.0,0.0,0.0,0.0,0.0
1494527475150482394,431,1494527475633363100,gyro_link,0.0,0.0,-0.00122173017247,0.999999253687,1.79769313486e+308,0.0,0.0,0.0,1.79769313486e+308,0.0,0.0,0.0,0.05,0.0,0.0,-0.00471238898038,1.79769313486e+308,0.0,0.0,0.0,1.79769313486e+308,0.0,0.0,0.0,0.05,0.0,0.0,0.0,0.0,0.0,0.0,0.0,0.0,0.0,0.0,0.0,0.0
1494527475168300270,432,1494527475653083380,gyro_link,0.0,0.0,-0.00122173017247,0.999999253687,1.79769313486e+308,0.0,0.0,0.0,1.79769313486e+308,0.0,0.0,0.0,0.05,0.0,0.0,0.00925024503557,1.79769313486e+308,0.0,0.0,0.0,1.79769313486e+308,0.0,0.0,0.0,0.05,0.0,0.0,0.0,0.0,0.0,0.0,0.0,0.0,0.0,0.0,0.0,0.0
1494527475193653832,433,1494527475673151947,gyro_link,0.0,0.0,-0.0010471973598,0.999999451689,1.79769313486e+308,0.0,0.0,0.0,1.79769313486e+308,0.0,0.0,0.0,0.05,0.0,0.0,0.0111701072128,1.79769313486e+308,0.0,0.0,0.0,1.79769313486e+308,0.0,0.0,0.0,0.05,0.0,0.0,0.0,0.0,0.0,0.0,0.0,0.0,0.0,0.0,0.0,0.0
1494527475224351989,434,1494527475693163849,gyro_link,0.0,0.0,-0.000872664515235,0.999999619228,1.79769313486e+308,0.0,0.0,0.0,1.79769313486e+308,0.0,0.0,0.0,0.05,0.0,0.0,0.0242600766027,1.79769313486e+308,0.0,0.0,0.0,1.79769313486e+308,0.0,0.0,0.0,0.05,0.0,0.0,0.0,0.0,0.0,0.0,0.0,0.0,0.0,0.0,0.0,0.0
1494527475227331652,435,1494527475712704172,gyro_link,0.0,0.0,-0.000698131644088,0.999999756306,1.79769313486e+308,0.0,0.0,0.0,1.79769313486e+308,0.0,0.0,0.0,0.05,0.0,0.0,0.014835298642,1.79769313486e+308,0.0,0.0,0.0,1.79769313486e+308,0.0,0.0,0.0,0.05,0.0,0.0,0.0,0.0,0.0,0.0,0.0,0.0,0.0,0.0,0.0,0.0
1494527475247594913,436,1494527475732856406,gyro_link,0.0,0.0,-0.000610865200207,0.999999813422,1.79769313486e+308,0.0,0.0,0.0,1.79769313486e+308,0.0,0.0,0.0,0.05,0.0,0.0,0.00890117918517,1.79769313486e+308,0.0,0.0,0.0,1.79769313486e+308,0.0,0.0,0.0,0.05,0.0,0.0,0.0,0.0,0.0,0.0,0.0,0.0,0.0,0.0,0.0,0.0
