%time,field.header.seq,field.header.stamp,field.header.frame_id,field.orientation.x,field.orientation.y,field.orientation.z,field.orientation.w,field.orientation_covariance0,field.orientation_covariance1,field.orientation_covariance2,field.orientation_covariance3,field.orientation_covariance4,field.orientation_covariance5,field.orientation_covariance6,field.orientation_covariance7,field.orientation_covariance8,field.angular_velocity.x,field.angular_velocity.y,field.angular_velocity.z,field.angular_velocity_covariance0,field.angular_velocity_covariance1,field.angular_velocity_covariance2,field.angular_velocity_covariance3,field.angular_velocity_covariance4,field.angular_velocity_covariance5,field.angular_velocity_covariance6,field.angular_velocity_covariance7,field.angular_velocity_covariance8,field.linear_acceleration.x,field.linear_acceleration.y,field.linear_acceleration.z,field.linear_acceleration_covariance0,field.linear_acceleration_covariance1,field.linear_acceleration_covariance2,field.linear_acceleration_covariance3,field.linear_acceleration_covariance4,field.linear_acceleration_covariance5,field.linear_acceleration_covariance6,field.linear_acceleration_covariance7,field.linear_acceleration_covariance8
1494450135467811885,0,1494450135519289200,gyro_link,0.0,0.0,-0.00034906584331,0.999999939077,1.79769313486e+308,0.0,0.0,0.0,1.79769313486e+308,0.0,0.0,0.0,0.05,0.0,0.0,-0.0127409035396,1.79769313486e+308,0.0,0.0,0.0,1.79769313486e+308,0.0,0.0,0.0,0.05,0.0,0.0,0.0,0.0,0.0,0.0,0.0,0.0,0.0,0.0,0.0,0.0
1494450135484675068,1,1494450135538474861,gyro_link,0.0,0.0,-0.00034906584331,0.999999939077,1.79769313486e+308,0.0,0.0,0.0,1.79769313486e+308,0.0,0.0,0.0,0.05,0.0,0.0,-0.00226892802759,1.79769313486e+308,0.0,0.0,0.0,1.79769313486e+308,0.0,0.0,0.0,0.05,0.0,0.0,0.0,0.0,0.0,0.0,0.0,0.0,0.0,0.0,0.0,0.0
1494450135504962572,2,1494450135558673180,gyro_link,0.0,0.0,-0.000261799384809,0.999999965731,1.79769313486e+308,0.0,0.0,0.0,1.79769313486e+308,0.0,0.0,0.0,0.05,0.0,0.0,0.0158824961931,1.79769313486e+308,0.0,0.0,0.0,1.79769313486e+308,0.0,0.0,0.0,0.05,0.0,0.0,0.0,0.0,0.0,0.0,0.0,0.0,0.0,0.0,0.0,0.0
1494450135524206551,3,1494450135579160371,gyro_link,0.0,0.0,-8.72664624889e-05,0.999999996192,1.79769313486e+308,0.0,0.0,0.0,1.79769313486e+308,0.0,0.0,0.0,0.05,0.0,0.0,0.0162315620435,1.79769313486e+308,0.0,0.0,0.0,1.79769313486e+308,0.0,0.0,0.0,0.05,0.0,0.0,0.0,0.0,0.0,0.0,0.0,0.0,0.0,0.0,0.0,0.0
1494450135543954003,4,1494450135598338824,gyro_link,0.0,0.0,-8.72664624889e-05,0.999999996192,1.79769313486e+308,0.0,0.0,0.0,1.79769313486e+308,0.0,0.0,0.0,0.05,0.0,0.0,-0.00733038285838,1.79769313486e+308,0.0,0.0,0.0,1.79769313486e+308,0.0,0.0,0.0,0.05,0.0,0.0,0.0,0.0,0.0,0.0,0.0,0.0,0.0,0.0,0.0,0.0
1494450135562987605,5,1494450135618153313,gyro_link,0.0,0.0,-0.000261799384809,0.999999965731,1.79769313486e+308,0.0,0.0,0.0,1.79769313486e+308,0.0,0.0,0.0,0.05,0.0,0.0,-0.0191986217719,1.79769313486e+308,0.0,0.0,0.0,1.79769313486e+308,0.0,0.0,0.0,0.05,0.0,0.0,0.0,0.0,0.0,0.0,0.0,0.0,0.0,0.0,0.0,0.0
1494450135597286267,6,1494450135638246924,gyro_link,0.0,0.0,-0.00034906584331,0.999999939077,1.79769313486e+308,0.0,0.0,0.0,1.79769313486e+308,0.0,0.0,0.0,0.05,0.0,0.0,-0.00314159265359,1.79769313486e+308,0.0,0.0,0.0,1.79769313486e+308,0.0,0.0,0.0,0.05,0.0,0.0,0.0,0.0,0.0,0.0,0.0,0.0,0.0,0.0,0.0,0.0
1494450135606040511,7,1494450135658730032,gyro_link,0.0,0.0,-0.000261799384809,0.999999965731,1.79769313486e+308,0.0,0.0,0.0,1.79769313486e+308,0.0,0.0,0.0,0.05,0.0,0.0,0.0111701072128,1.79769313486e+308,0.0,0.0,0.0,1.79769313486e+308,0.0,0.0,0.0,0.05,0.0,0.0,0.0,0.0,0.0,0.0,0.0,0.0,0.0,0.0,0.0,0.0
1494450135623840495,8,1494450135678904935,gyro_link,0.0,0.0,-0.000261799384809,0.999999965731,1.79769313486e+308,0.0,0.0,0.0,1.79769313486e+308,0.0,0.0,0.0,0.05,0.0,0.0,-0.00645771823238,1.79769313486e+308,0.0,0.0,0.0,1.79769313486e+308,0.0,0.0,0.0,0.05,0.0,0.0,0.0,0.0,0.0,0.0,0.0,0.0,0.0,0.0,0.0,0.0
1494450135644347208,9,1494450135698264386,gyro_link,0.0,0.0,-0.00034906584331,0.999999939077,1.79769313486e+308,0.0,0.0,0.0,1.79769313486e+308,0.0,0.0,0.0,0.05,0.0,0.0,-0.00872664625997,1.79769313486e+308,0.0,0.0,0.0,1.79769313486e+308,0.0,0.0,0.0,0.05,0.0,0.0,0.0,0.0,0.0,0.0,0.0,0.0,0.0,0.0,0.0,0.0
1494450135664654733,10,1494450135719271156,gyro_link,0.0,0.0,-8.72664624889e-05,0.999999996192,1.79769313486e+308,0.0,0.0,0.0,1.79769313486e+308,0.0,0.0,0.0,0.05,0.0,0.0,0.0322885911619,1.79769313486e+308,0.0,0.0,0.0,1.79769313486e+308,0.0,0.0,0.0,0.05,0.0,0.0,0.0,0.0,0.0,0.0,0.0,0.0,0.0,0.0,0.0,0.0
1494450135685141578,11,1494450135738633691,gyro_link,0.0,0.0,0.000261799384809,0.999999965731,1.79769313486e+308,0.0,0.0,0.0,1.79769313486e+308,0.0,0.0,0.0,0.05,0.0,0.0,0.0352556508903,1.79769313486e+308,0.0,0.0,0.0,1.79769313486e+308,0.0,0.0,0.0,0.05,0.0,0.0,0.0,0.0,0.0,0.0,0.0,0.0,0.0,0.0,0.0,0.0
1494450135704566968,12,1494450135758648719,gyro_link,0.0,0.0,0.000436332299153,0.999999904807,1.79769313486e+308,0.0,0.0,0.0,1.79769313486e+308,0.0,0.0,0.0,0.05,0.0,0.0,0.0205948851735,1.79769313486e+308,0.0,0.0,0.0,1.79769313486e+308,0.0,0.0,0.0,0.05,0.0,0.0,0.0,0.0,0.0,0.0,0.0,0.0,0.0,0.0,0.0,0.0
1494450135726558094,13,1494450135778585957,gyro_link,0.0,0.0,0.000698131644088,0.999999756306,1.79769313486e+308,0.0,0.0,0.0,1.79769313486e+308,0.0,0.0,0.0,0.05,0.0,0.0,0.0249582083035,1.79769313486e+308,0.0,0.0,0.0,1.79769313486e+308,0.0,0.0,0.0,0.05,0.0,0.0,0.0,0.0,0.0,0.0,0.0,0.0,0.0,0.0,0.0,0.0
1494450135750360904,14,1494450135802874281,gyro_link,0.0,0.0,0.000785398082652,0.999999691575,1.79769313486e+308,0.0,0.0,0.0,1.79769313486e+308,0.0,0.0,0.0,0.05,0.0,0.0,0.00436332312999,1.79769313486e+308,0.0,0.0,0.0,1.79769313486e+308,0.0,0.0,0.0,0.05,0.0,0.0,0.0,0.0,0.0,0.0,0.0,0.0,0.0,0.0,0.0,0.0
1494450135766697303,15,1494450135819319884,gyro_link,0.0,0.0,0.000785398082652,0.999999691575,1.79769313486e+308,0.0,0.0,0.0,1.79769313486e+308,0.0,0.0,0.0,0.05,0.0,0.0,-0.00488692190558,1.79769313486e+308,0.0,0.0,0.0,1.79769313486e+308,0.0,0.0,0.0,0.05,0.0,0.0,0.0,0.0,0.0,0.0,0.0,0.0,0.0,0.0,0.0,0.0
1494450135787581481,16,1494450135839246246,gyro_link,0.0,0.0,0.000698131644088,0.999999756306,1.79769313486e+308,0.0,0.0,0.0,1.79769313486e+308,0.0,0.0,0.0,0.05,0.0,0.0,-0.00418879020479,1.79769313486e+308,0.0,0.0,0.0,1.79769313486e+308,0.0,0.0,0.0,0.05,0.0,0.0,0.0,0.0,0.0,0.0,0.0,0.0,0.0,0.0,0.0,0.0
1494450135809899139,17,1494450135859179109,gyro_link,0.0,0.0,0.000610865200207,0.999999813422,1.79769313486e+308,0.0,0.0,0.0,1.79769313486e+308,0.0,0.0,0.0,0.05,0.0,0.0,-0.0132645023152,1.79769313486e+308,0.0,0.0,0.0,1.79769313486e+308,0.0,0.0,0.0,0.05,0.0,0.0,0.0,0.0,0.0,0.0,0.0,0.0,0.0,0.0,0.0,0.0
1494450135831042659,18,1494450135879201555,gyro_link,0.0,0.0,0.000436332299153,0.999999904807,1.79769313486e+308,0.0,0.0,0.0,1.79769313486e+308,0.0,0.0,0.0,0.05,0.0,0.0,-0.0141371669412,1.79769313486e+308,0.0,0.0,0.0,1.79769313486e+308,0.0,0.0,0.0,0.05,0.0,0.0,0.0,0.0,0.0,0.0,0.0,0.0,0.0,0.0,0.0,0.0
1494450135846228915,19,1494450135899865286,gyro_link,0.0,0.0,0.000610865200207,0.999999813422,1.79769313486e+308,0.0,0.0,0.0,1.79769313486e+308,0.0,0.0,0.0,0.05,0.0,0.0,0.0214675497995,1.79769313486e+308,0.0,0.0,0.0,1.79769313486e+308,0.0,0.0,0.0,0.05,0.0,0.0,0.0,0.0,0.0,0.0,0.0,0.0,0.0,0.0,0.0,0.0
1494450135865933370,20,1494450135919361278,gyro_link,0.0,0.0,0.000785398082652,0.999999691575,1.79769313486e+308,0.0,0.0,0.0,1.79769313486e+308,0.0,0.0,0.0,0.05,0.0,0.0,0.0223402144255,1.79769313486e+308,0.0,0.0,0.0,1.79769313486e+308,0.0,0.0,0.0,0.05,0.0,0.0,0.0,0.0,0.0,0.0,0.0,0.0,0.0,0.0,0.0,0.0
1494450135890542968,21,1494450135939241975,gyro_link,0.0,0.0,0.00113446377045,0.999999356496,1.79769313486e+308,0.0,0.0,0.0,1.79769313486e+308,0.0,0.0,0.0,0.05,0.0,0.0,0.0319395253115,1.79769313486e+308,0.0,0.0,0.0,1.79769313486e+308,0.0,0.0,0.0,0.05,0.0,0.0,0.0,0.0,0.0,0.0,0.0,0.0,0.0,0.0,0.0,0.0
1494450135908603496,22,1494450135959176629,gyro_link,0.0,0.0,0.00139626294791,0.999999025224,1.79769313486e+308,0.0,0.0,0.0,1.79769313486e+308,0.0,0.0,0.0,0.05,0.0,0.0,0.0239110107523,1.79769313486e+308,0.0,0.0,0.0,1.79769313486e+308,0.0,0.0,0.0,0.05,0.0,0.0,0.0,0.0,0.0,0.0,0.0,0.0,0.0,0.0,0.0,0.0
1494450135924408346,23,1494450135979268490,gyro_link,0.0,0.0,0.00139626294791,0.999999025224,1.79769313486e+308,0.0,0.0,0.0,1.79769313486e+308,0.0,0.0,0.0,0.05,0.0,0.0,0.000523598775598,1.79769313486e+308,0.0,0.0,0.0,1.79769313486e+308,0.0,0.0,0.0,0.05,0.0,0.0,0.0,0.0,0.0,0.0,0.0,0.0,0.0,0.0,0.0,0.0
1494450135948590404,24,1494450136000396926,gyro_link,0.0,0.0,0.00148352932002,0.99999889957,1.79769313486e+308,0.0,0.0,0.0,1.79769313486e+308,0.0,0.0,0.0,0.05,0.0,0.0,0.00383972435439,1.79769313486e+308,0.0,0.0,0.0,1.79769313486e+308,0.0,0.0,0.0,0.05,0.0,0.0,0.0,0.0,0.0,0.0,0.0,0.0,0.0,0.0,0.0,0.0
1494450135967520351,25,1494450136020299164,gyro_link,0.0,0.0,0.00139626294791,0.999999025224,1.79769313486e+308,0.0,0.0,0.0,1.79769313486e+308,0.0,0.0,0.0,0.05,0.0,0.0,-0.00558505360638,1.79769313486e+308,0.0,0.0,0.0,1.79769313486e+308,0.0,0.0,0.0,0.05,0.0,0.0,0.0,0.0,0.0,0.0,0.0,0.0,0.0,0.0,0.0,0.0
1494450135991438742,26,1494450136040163444,gyro_link,0.0,0.0,0.00130899656517,0.999999143264,1.79769313486e+308,0.0,0.0,0.0,1.79769313486e+308,0.0,0.0,0.0,0.05,0.0,0.0,-0.0183259571459,1.79769313486e+308,0.0,0.0,0.0,1.79769313486e+308,0.0,0.0,0.0,0.05,0.0,0.0,0.0,0.0,0.0,0.0,0.0,0.0,0.0,0.0,0.0,0.0
1494450136007866760,27,1494450136060182390,gyro_link,0.0,0.0,0.00113446377045,0.999999356496,1.79769313486e+308,0.0,0.0,0.0,1.79769313486e+308,0.0,0.0,0.0,0.05,0.0,0.0,-0.00506145483078,1.79769313486e+308,0.0,0.0,0.0,1.79769313486e+308,0.0,0.0,0.0,0.05,0.0,0.0,0.0,0.0,0.0,0.0,0.0,0.0,0.0,0.0,0.0,0.0
1494450136030116503,28,1494450136079961796,gyro_link,0.0,0.0,0.00122173017247,0.999999253687,1.79769313486e+308,0.0,0.0,0.0,1.79769313486e+308,0.0,0.0,0.0,0.05,0.0,0.0,0.0013962634016,1.79769313486e+308,0.0,0.0,0.0,1.79769313486e+308,0.0,0.0,0.0,0.05,0.0,0.0,0.0,0.0,0.0,0.0,0.0,0.0,0.0,0.0,0.0,0.0
1494450136049750096,29,1494450136100936691,gyro_link,0.0,0.0,0.00113446377045,0.999999356496,1.79769313486e+308,0.0,0.0,0.0,1.79769313486e+308,0.0,0.0,0.0,0.05,0.0,0.0,-0.0160570291183,1.79769313486e+308,0.0,0.0,0.0,1.79769313486e+308,0.0,0.0,0.0,0.05,0.0,0.0,0.0,0.0,0.0,0.0,0.0,0.0,0.0,0.0,0.0,0.0
1494450136069088911,30,1494450136120995136,gyro_link,0.0,0.0,0.0010471973598,0.999999451689,1.79769313486e+308,0.0,0.0,0.0,1.79769313486e+308,0.0,0.0,0.0,0.05,0.0,0.0,-0.00610865238198,1.79769313486e+308,0.0,0.0,0.0,1.79769313486e+308,0.0,0.0,0.0,0.05,0.0,0.0,0.0,0.0,0.0,0.0,0.0,0.0,0.0,0.0,0.0,0.0
1494450136094455389,31,1494450136141643910,gyro_link,0.0,0.0,0.0010471973598,0.999999451689,1.79769313486e+308,0.0,0.0,0.0,1.79769313486e+308,0.0,0.0,0.0,0.05,0.0,0.0,-0.000872664625997,1.79769313486e+308,0.0,0.0,0.0,1.79769313486e+308,0.0,0.0,0.0,0.05,0.0,0.0,0.0,0.0,0.0,0.0,0.0,0.0,0.0,0.0,0.0,0.0
1494450136105459533,32,1494450136159349876,gyro_link,0.0,0.0,0.000959930941173,0.999999539266,1.79769313486e+308,0.0,0.0,0.0,1.79769313486e+308,0.0,0.0,0.0,0.05,0.0,0.0,-0.011344640138,1.79769313486e+308,0.0,0.0,0.0,1.79769313486e+308,0.0,0.0,0.0,0.05,0.0,0.0,0.0,0.0,0.0,0.0,0.0,0.0,0.0,0.0,0.0,0.0
1494450136124355988,33,1494450136179463904,gyro_link,0.0,0.0,0.000872664515235,0.999999619228,1.79769313486e+308,0.0,0.0,0.0,1.79769313486e+308,0.0,0.0,0.0,0.05,0.0,0.0,-0.00349065850399,1.79769313486e+308,0.0,0.0,0.0,1.79769313486e+308,0.0,0.0,0.0,0.05,0.0,0.0,0.0,0.0,0.0,0.0,0.0,0.0,0.0,0.0,0.0,0.0
1494450136150243184,34,1494450136199164769,gyro_link,0.0,0.0,0.000872664515235,0.999999619228,1.79769313486e+308,0.0,0.0,0.0,1.79769313486e+308,0.0,0.0,0.0,0.05,0.0,0.0,-0.000523598775598,1.79769313486e+308,0.0,0.0,0.0,1.79769313486e+308,0.0,0.0,0.0,0.05,0.0,0.0,0.0,0.0,0.0,0.0,0.0,0.0,0.0,0.0,0.0,0.0
1494450136165242105,35,1494450136219308797,gyro_link,0.0,0.0,0.000872664515235,0.999999619228,1.79769313486e+308,0.0,0.0,0.0,1.79769313486e+308,0.0,0.0,0.0,0.05,0.0,0.0,-0.00174532925199,1.79769313486e+308,0.0,0.0,0.0,1.79769313486e+308,0.0,0.0,0.0,0.05,0.0,0.0,0.0,0.0,0.0,0.0,0.0,0.0,0.0,0.0,0.0,0.0
1494450136199845852,36,1494450136247643334,gyro_link,0.0,0.0,0.000959930941173,0.999999539266,1.79769313486e+308,0.0,0.0,0.0,1.79769313486e+308,0.0,0.0,0.0,0.05,0.0,0.0,0.0120427718388,1.79769313486e+308,0.0,0.0,0.0,1.79769313486e+308,0.0,0.0,0.0,0.05,0.0,0.0,0.0,0.0,0.0,0.0,0.0,0.0,0.0,0.0,0.0,0.0
1494450136208817492,37,1494450136263583233,gyro_link,0.0,0.0,0.0010471973598,0.999999451689,1.79769313486e+308,0.0,0.0,0.0,1.79769313486e+308,0.0,0.0,0.0,0.05,0.0,0.0,0.00785398163397,1.79769313486e+308,0.0,0.0,0.0,1.79769313486e+308,0.0,0.0,0.0,0.05,0.0,0.0,0.0,0.0,0.0,0.0,0.0,0.0,0.0,0.0,0.0,0.0
1494450136226832183,38,1494450136280285583,gyro_link,0.0,0.0,0.000785398082652,0.999999691575,1.79769313486e+308,0.0,0.0,0.0,1.79769313486e+308,0.0,0.0,0.0,0.05,0.0,0.0,-0.0307177948351,1.79769313486e+308,0.0,0.0,0.0,1.79769313486e+308,0.0,0.0,0.0,0.05,0.0,0.0,0.0,0.0,0.0,0.0,0.0,0.0,0.0,0.0,0.0,0.0
1494450136245687139,39,1494450136299337829,gyro_link,0.0,0.0,0.000261799384809,0.999999965731,1.79769313486e+308,0.0,0.0,0.0,1.79769313486e+308,0.0,0.0,0.0,0.05,0.0,0.0,-0.0616101225954,1.79769313486e+308,0.0,0.0,0.0,1.79769313486e+308,0.0,0.0,0.0,0.05,0.0,0.0,0.0,0.0,0.0,0.0,0.0,0.0,0.0,0.0,0.0,0.0
1494450136265844267,40,1494450136319510815,gyro_link,0.0,0.0,-0.00034906584331,0.999999939077,1.79769313486e+308,0.0,0.0,0.0,1.79769313486e+308,0.0,0.0,0.0,0.05,0.0,0.0,-0.0645771823238,1.79769313486e+308,0.0,0.0,0.0,1.79769313486e+308,0.0,0.0,0.0,0.05,0.0,0.0,0.0,0.0,0.0,0.0,0.0,0.0,0.0,0.0,0.0,0.0
1494450136285024835,41,1494450136339241430,gyro_link,0.0,0.0,-0.00113446377045,0.999999356496,1.79769313486e+308,0.0,0.0,0.0,1.79769313486e+308,0.0,0.0,0.0,0.05,0.0,0.0,-0.0876155284501,1.79769313486e+308,0.0,0.0,0.0,1.79769313486e+308,0.0,0.0,0.0,0.05,0.0,0.0,0.0,0.0,0.0,0.0,0.0,0.0,0.0,0.0,0.0,0.0
1494450136305088290,42,1494450136359141418,gyro_link,0.0,0.0,-0.0019198609978,0.999998157065,1.79769313486e+308,0.0,0.0,0.0,1.79769313486e+308,0.0,0.0,0.0,0.05,0.0,0.0,-0.0815068760681,1.79769313486e+308,0.0,0.0,0.0,1.79769313486e+308,0.0,0.0,0.0,0.05,0.0,0.0,0.0,0.0,0.0,0.0,0.0,0.0,0.0,0.0,0.0,0.0
1494450136324446590,43,1494450136379029031,gyro_link,0.0,0.0,-0.00244345852134,0.999997014751,1.79769313486e+308,0.0,0.0,0.0,1.79769313486e+308,0.0,0.0,0.0,0.05,0.0,0.0,-0.046425758103,1.79769313486e+308,0.0,0.0,0.0,1.79769313486e+308,0.0,0.0,0.0,0.05,0.0,0.0,0.0,0.0,0.0,0.0,0.0,0.0,0.0,0.0,0.0,0.0
1494450136344840955,44,1494450136398950644,gyro_link,0.0,0.0,-0.00270525704088,0.999996340785,1.79769313486e+308,0.0,0.0,0.0,1.79769313486e+308,0.0,0.0,0.0,0.05,0.0,0.0,-0.0162315620435,1.79769313486e+308,0.0,0.0,0.0,1.79769313486e+308,0.0,0.0,0.0,0.05,0.0,0.0,0.0,0.0,0.0,0.0,0.0,0.0,0.0,0.0,0.0,0.0
1494450136365383462,45,1494450136419243421,gyro_link,0.0,0.0,-0.00270525704088,0.999996340785,1.79769313486e+308,0.0,0.0,0.0,1.79769313486e+308,0.0,0.0,0.0,0.05,0.0,0.0,0.00261799387799,1.79769313486e+308,0.0,0.0,0.0,1.79769313486e+308,0.0,0.0,0.0,0.05,0.0,0.0,0.0,0.0,0.0,0.0,0.0,0.0,0.0,0.0,0.0,0.0
1494450136384364161,46,1494450136439385282,gyro_link,0.0,0.0,-0.00279252317374,0.9999961009,1.79769313486e+308,0.0,0.0,0.0,1.79769313486e+308,0.0,0.0,0.0,0.05,0.0,0.0,-0.01308996939,1.79769313486e+308,0.0,0.0,0.0,1.79769313486e+308,0.0,0.0,0.0,0.05,0.0,0.0,0.0,0.0,0.0,0.0,0.0,0.0,0.0,0.0,0.0,0.0
1494450136405395044,47,1494450136460180887,gyro_link,0.0,0.0,-0.00287978928534,0.999995853398,1.79769313486e+308,0.0,0.0,0.0,1.79769313486e+308,0.0,0.0,0.0,0.05,0.0,0.0,0.00663225115758,1.79769313486e+308,0.0,0.0,0.0,1.79769313486e+308,0.0,0.0,0.0,0.05,0.0,0.0,0.0,0.0,0.0,0.0,0.0,0.0,0.0,0.0,0.0,0.0
1494450136425306265,48,1494450136479225883,gyro_link,0.0,0.0,-0.00279252317374,0.9999961009,1.79769313486e+308,0.0,0.0,0.0,1.79769313486e+308,0.0,0.0,0.0,0.05,0.0,0.0,-0.00471238898038,1.79769313486e+308,0.0,0.0,0.0,1.79769313486e+308,0.0,0.0,0.0,0.05,0.0,0.0,0.0,0.0,0.0,0.0,0.0,0.0,0.0,0.0,0.0,0.0
1494450136446003463,49,1494450136501093103,gyro_link,0.0,0.0,-0.002967055375,0.999995598282,1.79769313486e+308,0.0,0.0,0.0,1.79769313486e+308,0.0,0.0,0.0,0.05,0.0,0.0,-0.00994837673637,1.79769313486e+308,0.0,0.0,0.0,1.79769313486e+308,0.0,0.0,0.0,0.05,0.0,0.0,0.0,0.0,0.0,0.0,0.0,0.0,0.0,0.0,0.0,0.0
1494450136465864369,50,1494450136520925967,gyro_link,0.0,0.0,-0.00314158748588,0.999995065202,1.79769313486e+308,0.0,0.0,0.0,1.79769313486e+308,0.0,0.0,0.0,0.05,0.0,0.0,-0.0247836753783,1.79769313486e+308,0.0,0.0,0.0,1.79769313486e+308,0.0,0.0,0.0,0.05,0.0,0.0,0.0,0.0,0.0,0.0,0.0,0.0,0.0,0.0,0.0,0.0
1494450136486134687,51,1494450136540213086,gyro_link,0.0,0.0,-0.00349065141522,0.999993907658,1.79769313486e+308,0.0,0.0,0.0,1.79769313486e+308,0.0,0.0,0.0,0.05,0.0,0.0,-0.0378736447683,1.79769313486e+308,0.0,0.0,0.0,1.79769313486e+308,0.0,0.0,0.0,0.05,0.0,0.0,0.0,0.0,0.0,0.0,0.0,0.0,0.0,0.0,0.0,0.0
1494450136505900078,52,1494450136559062250,gyro_link,0.0,0.0,-0.00375244908544,0.999992959538,1.79769313486e+308,0.0,0.0,0.0,1.79769313486e+308,0.0,0.0,0.0,0.05,0.0,0.0,-0.0317649923863,1.79769313486e+308,0.0,0.0,0.0,1.79769313486e+308,0.0,0.0,0.0,0.05,0.0,0.0,0.0,0.0,0.0,0.0,0.0,0.0,0.0,0.0,0.0,0.0
1494450136527742179,53,1494450136580263477,gyro_link,0.0,0.0,-0.0041887779554,0.999991227031,1.79769313486e+308,0.0,0.0,0.0,1.79769313486e+308,0.0,0.0,0.0,0.05,0.0,0.0,-0.0399680398707,1.79769313486e+308,0.0,0.0,0.0,1.79769313486e+308,0.0,0.0,0.0,0.05,0.0,0.0,0.0,0.0,0.0,0.0,0.0,0.0,0.0,0.0,0.0,0.0
1494450136544483783,54,1494450136599070433,gyro_link,0.0,0.0,-0.00445057489991,0.999990096142,1.79769313486e+308,0.0,0.0,0.0,1.79769313486e+308,0.0,0.0,0.0,0.05,0.0,0.0,-0.0324631240871,1.79769313486e+308,0.0,0.0,0.0,1.79769313486e+308,0.0,0.0,0.0,0.05,0.0,0.0,0.0,0.0,0.0,0.0,0.0,0.0,0.0,0.0,0.0,0.0
1494450136565339269,55,1494450136619095254,gyro_link,0.0,0.0,-0.00462510602789,0.99998930414,1.79769313486e+308,0.0,0.0,0.0,1.79769313486e+308,0.0,0.0,0.0,0.05,0.0,0.0,-0.00802851455917,1.79769313486e+308,0.0,0.0,0.0,1.79769313486e+308,0.0,0.0,0.0,0.05,0.0,0.0,0.0,0.0,0.0,0.0,0.0,0.0,0.0,0.0,0.0,0.0
1494450136586694261,56,1494450136639186574,gyro_link,0.0,0.0,-0.00427604363636,0.999990857684,1.79769313486e+308,0.0,0.0,0.0,1.79769313486e+308,0.0,0.0,0.0,0.05,0.0,0.0,0.0520108117094,1.79769313486e+308,0.0,0.0,0.0,1.79769313486e+308,0.0,0.0,0.0,0.05,0.0,0.0,0.0,0.0,0.0,0.0,0.0,0.0,0.0,0.0,0.0,0.0
1494450136606368448,57,1494450136660238885,gyro_link,0.0,0.0,-0.00322885350576,0.999994787239,1.79769313486e+308,0.0,0.0,0.0,1.79769313486e+308,0.0,0.0,0.0,0.05,0.0,0.0,0.0731292956586,1.79769313486e+308,0.0,0.0,0.0,1.79769313486e+308,0.0,0.0,0.0,0.05,0.0,0.0,0.0,0.0,0.0,0.0,0.0,0.0,0.0,0.0,0.0,0.0
1494450136626676514,58,1494450136680320622,gyro_link,0.0,0.0,-0.00270525704088,0.999996340785,1.79769313486e+308,0.0,0.0,0.0,1.79769313486e+308,0.0,0.0,0.0,0.05,0.0,0.0,0.0555014702134,1.79769313486e+308,0.0,0.0,0.0,1.79769313486e+308,0.0,0.0,0.0,0.05,0.0,0.0,0.0,0.0,0.0,0.0,0.0,0.0,0.0,0.0,0.0,0.0
1494450136645354108,59,1494450136700148485,gyro_link,0.0,0.0,-0.00235619231006,0.999997224175,1.79769313486e+308,0.0,0.0,0.0,1.79769313486e+308,0.0,0.0,0.0,0.05,0.0,0.0,0.0274016692563,1.79769313486e+308,0.0,0.0,0.0,1.79769313486e+308,0.0,0.0,0.0,0.05,0.0,0.0,0.0,0.0,0.0,0.0,0.0,0.0,0.0,0.0,0.0,0.0
1494450136665049412,60,1494450136720336596,gyro_link,0.0,0.0,-0.00226892608084,0.999997425984,1.79769313486e+308,0.0,0.0,0.0,1.79769313486e+308,0.0,0.0,0.0,0.05,0.0,0.0,-0.00174532925199,1.79769313486e+308,0.0,0.0,0.0,1.79769313486e+308,0.0,0.0,0.0,0.05,0.0,0.0,0.0,0.0,0.0,0.0,0.0,0.0,0.0,0.0,0.0,0.0
1494450136686434196,61,1494450136740640331,gyro_link,0.0,0.0,-0.00244345852134,0.999997014751,1.79769313486e+308,0.0,0.0,0.0,1.79769313486e+308,0.0,0.0,0.0,0.05,0.0,0.0,-0.0153588974176,1.79769313486e+308,0.0,0.0,0.0,1.79769313486e+308,0.0,0.0,0.0,0.05,0.0,0.0,0.0,0.0,0.0,0.0,0.0,0.0,0.0,0.0,0.0,0.0
1494450136708267108,62,1494450136760113948,gyro_link,0.0,0.0,-0.00270525704088,0.999996340785,1.79769313486e+308,0.0,0.0,0.0,1.79769313486e+308,0.0,0.0,0.0,0.05,0.0,0.0,-0.0303687289847,1.79769313486e+308,0.0,0.0,0.0,1.79769313486e+308,0.0,0.0,0.0,0.05,0.0,0.0,0.0,0.0,0.0,0.0,0.0,0.0,0.0,0.0,0.0,0.0
1494450136724875111,63,1494450136780274100,gyro_link,0.0,0.0,-0.00287978928534,0.999995853398,1.79769313486e+308,0.0,0.0,0.0,1.79769313486e+308,0.0,0.0,0.0,0.05,0.0,0.0,-0.0190240888467,1.79769313486e+308,0.0,0.0,0.0,1.79769313486e+308,0.0,0.0,0.0,0.05,0.0,0.0,0.0,0.0,0.0,0.0,0.0,0.0,0.0,0.0,0.0,0.0
1494450136745629671,64,1494450136800460169,gyro_link,0.0,0.0,-0.00305432144207,0.999995335549,1.79769313486e+308,0.0,0.0,0.0,1.79769313486e+308,0.0,0.0,0.0,0.05,0.0,0.0,-0.0160570291183,1.79769313486e+308,0.0,0.0,0.0,1.79769313486e+308,0.0,0.0,0.0,0.05,0.0,0.0,0.0,0.0,0.0,0.0,0.0,0.0,0.0,0.0,0.0,0.0
1494450136765842313,65,1494450136819961161,gyro_link,0.0,0.0,-0.00305432144207,0.999995335549,1.79769313486e+308,0.0,0.0,0.0,1.79769313486e+308,0.0,0.0,0.0,0.05,0.0,0.0,0.00890117918517,1.79769313486e+308,0.0,0.0,0.0,1.79769313486e+308,0.0,0.0,0.0,0.05,0.0,0.0,0.0,0.0,0.0,0.0,0.0,0.0,0.0,0.0,0.0,0.0
1494450136786392457,66,1494450136840176897,gyro_link,0.0,0.0,-0.00279252317374,0.9999961009,1.79769313486e+308,0.0,0.0,0.0,1.79769313486e+308,0.0,0.0,0.0,0.05,0.0,0.0,0.00558505360638,1.79769313486e+308,0.0,0.0,0.0,1.79769313486e+308,0.0,0.0,0.0,0.05,0.0,0.0,0.0,0.0,0.0,0.0,0.0,0.0,0.0,0.0,0.0,0.0
1494450136811875735,67,1494450136860228092,gyro_link,0.0,0.0,-0.00279252317374,0.9999961009,1.79769313486e+308,0.0,0.0,0.0,1.79769313486e+308,0.0,0.0,0.0,0.05,0.0,0.0,0.00314159265359,1.79769313486e+308,0.0,0.0,0.0,1.79769313486e+308,0.0,0.0,0.0,0.05,0.0,0.0,0.0,0.0,0.0,0.0,0.0,0.0,0.0,0.0,0.0,0.0
1494450136825820043,68,1494450136880184371,gyro_link,0.0,0.0,-0.00270525704088,0.999996340785,1.79769313486e+308,0.0,0.0,0.0,1.79769313486e+308,0.0,0.0,0.0,0.05,0.0,0.0,0.00558505360638,1.79769313486e+308,0.0,0.0,0.0,1.79769313486e+308,0.0,0.0,0.0,0.05,0.0,0.0,0.0,0.0,0.0,0.0,0.0,0.0,0.0,0.0,0.0,0.0
1494450136844932766,69,1494450136900027277,gyro_link,0.0,0.0,-0.00270525704088,0.999996340785,1.79769313486e+308,0.0,0.0,0.0,1.79769313486e+308,0.0,0.0,0.0,0.05,0.0,0.0,0.00453785605519,1.79769313486e+308,0.0,0.0,0.0,1.79769313486e+308,0.0,0.0,0.0,0.05,0.0,0.0,0.0,0.0,0.0,0.0,0.0,0.0,0.0,0.0,0.0,0.0
1494450136864594348,70,1494450136919903349,gyro_link,0.0,0.0,-0.00261799088742,0.999996573056,1.79769313486e+308,0.0,0.0,0.0,1.79769313486e+308,0.0,0.0,0.0,0.05,0.0,0.0,0.0109955742876,1.79769313486e+308,0.0,0.0,0.0,1.79769313486e+308,0.0,0.0,0.0,0.05,0.0,0.0,0.0,0.0,0.0,0.0,0.0,0.0,0.0,0.0,0.0,0.0
1494450136886229529,71,1494450136940323499,gyro_link,0.0,0.0,-0.00253072471402,0.999996797711,1.79769313486e+308,0.0,0.0,0.0,1.79769313486e+308,0.0,0.0,0.0,0.05,0.0,0.0,0.00244346095279,1.79769313486e+308,0.0,0.0,0.0,1.79769313486e+308,0.0,0.0,0.0,0.05,0.0,0.0,0.0,0.0,0.0,0.0,0.0,0.0,0.0,0.0,0.0,0.0
1494450136913820837,72,1494450136960095905,gyro_link,0.0,0.0,-0.00253072471402,0.999996797711,1.79769313486e+308,0.0,0.0,0.0,1.79769313486e+308,0.0,0.0,0.0,0.05,0.0,0.0,-0.000698131700798,1.79769313486e+308,0.0,0.0,0.0,1.79769313486e+308,0.0,0.0,0.0,0.05,0.0,0.0,0.0,0.0,0.0,0.0,0.0,0.0,0.0,0.0,0.0,0.0
1494450136927502164,73,1494450136980127517,gyro_link,0.0,0.0,-0.00253072471402,0.999996797711,1.79769313486e+308,0.0,0.0,0.0,1.79769313486e+308,0.0,0.0,0.0,0.05,0.0,0.0,0.00506145483078,1.79769313486e+308,0.0,0.0,0.0,1.79769313486e+308,0.0,0.0,0.0,0.05,0.0,0.0,0.0,0.0,0.0,0.0,0.0,0.0,0.0,0.0,0.0,0.0
1494450136947019452,74,1494450136999852465,gyro_link,0.0,0.0,-0.00253072471402,0.999996797711,1.79769313486e+308,0.0,0.0,0.0,1.79769313486e+308,0.0,0.0,0.0,0.05,0.0,0.0,0.00314159265359,1.79769313486e+308,0.0,0.0,0.0,1.79769313486e+308,0.0,0.0,0.0,0.05,0.0,0.0,0.0,0.0,0.0,0.0,0.0,0.0,0.0,0.0,0.0,0.0
1494450136968924183,75,1494450137021476521,gyro_link,0.0,0.0,-0.00244345852134,0.999997014751,1.79769313486e+308,0.0,0.0,0.0,1.79769313486e+308,0.0,0.0,0.0,0.05,0.0,0.0,-0.00226892802759,1.79769313486e+308,0.0,0.0,0.0,1.79769313486e+308,0.0,0.0,0.0,0.05,0.0,0.0,0.0,0.0,0.0,0.0,0.0,0.0,0.0,0.0,0.0,0.0
1494450136986146133,76,1494450137039976480,gyro_link,0.0,0.0,-0.00253072471402,0.999996797711,1.79769313486e+308,0.0,0.0,0.0,1.79769313486e+308,0.0,0.0,0.0,0.05,0.0,0.0,-0.00575958653158,1.79769313486e+308,0.0,0.0,0.0,1.79769313486e+308,0.0,0.0,0.0,0.05,0.0,0.0,0.0,0.0,0.0,0.0,0.0,0.0,0.0,0.0,0.0,0.0
1494450137008829571,77,1494450137060283090,gyro_link,0.0,0.0,-0.00261799088742,0.999996573056,1.79769313486e+308,0.0,0.0,0.0,1.79769313486e+308,0.0,0.0,0.0,0.05,0.0,0.0,-0.00872664625997,1.79769313486e+308,0.0,0.0,0.0,1.79769313486e+308,0.0,0.0,0.0,0.05,0.0,0.0,0.0,0.0,0.0,0.0,0.0,0.0,0.0,0.0,0.0,0.0
1494450137027665062,78,1494450137080295577,gyro_link,0.0,0.0,-0.00270525704088,0.999996340785,1.79769313486e+308,0.0,0.0,0.0,1.79769313486e+308,0.0,0.0,0.0,0.05,0.0,0.0,-0.00942477796077,1.79769313486e+308,0.0,0.0,0.0,1.79769313486e+308,0.0,0.0,0.0,0.05,0.0,0.0,0.0,0.0,0.0,0.0,0.0,0.0,0.0,0.0,0.0,0.0
1494450137047491385,79,1494450137100503563,gyro_link,0.0,0.0,-0.00279252317374,0.9999961009,1.79769313486e+308,0.0,0.0,0.0,1.79769313486e+308,0.0,0.0,0.0,0.05,0.0,0.0,-0.00942477796077,1.79769313486e+308,0.0,0.0,0.0,1.79769313486e+308,0.0,0.0,0.0,0.05,0.0,0.0,0.0,0.0,0.0,0.0,0.0,0.0,0.0,0.0,0.0,0.0
1494450137071423058,80,1494450137122418825,gyro_link,0.0,0.0,-0.00279252317374,0.9999961009,1.79769313486e+308,0.0,0.0,0.0,1.79769313486e+308,0.0,0.0,0.0,0.05,0.0,0.0,0.00453785605519,1.79769313486e+308,0.0,0.0,0.0,1.79769313486e+308,0.0,0.0,0.0,0.05,0.0,0.0,0.0,0.0,0.0,0.0,0.0,0.0,0.0,0.0,0.0,0.0
1494450137086836115,81,1494450137140457538,gyro_link,0.0,0.0,-0.00270525704088,0.999996340785,1.79769313486e+308,0.0,0.0,0.0,1.79769313486e+308,0.0,0.0,0.0,0.05,0.0,0.0,0.00279252680319,1.79769313486e+308,0.0,0.0,0.0,1.79769313486e+308,0.0,0.0,0.0,0.05,0.0,0.0,0.0,0.0,0.0,0.0,0.0,0.0,0.0,0.0,0.0,0.0
1494450137109435355,82,1494450137160707940,gyro_link,0.0,0.0,-0.00270525704088,0.999996340785,1.79769313486e+308,0.0,0.0,0.0,1.79769313486e+308,0.0,0.0,0.0,0.05,0.0,0.0,-0.000349065850399,1.79769313486e+308,0.0,0.0,0.0,1.79769313486e+308,0.0,0.0,0.0,0.05,0.0,0.0,0.0,0.0,0.0,0.0,0.0,0.0,0.0,0.0,0.0,0.0
1494450137125598747,83,1494450137180257765,gyro_link,0.0,0.0,-0.00287978928534,0.999995853398,1.79769313486e+308,0.0,0.0,0.0,1.79769313486e+308,0.0,0.0,0.0,0.05,0.0,0.0,-0.0191986217719,1.79769313486e+308,0.0,0.0,0.0,1.79769313486e+308,0.0,0.0,0.0,0.05,0.0,0.0,0.0,0.0,0.0,0.0,0.0,0.0,0.0,0.0,0.0,0.0
1494450137145471833,84,1494450137199918547,gyro_link,0.0,0.0,-0.00305432144207,0.999995335549,1.79769313486e+308,0.0,0.0,0.0,1.79769313486e+308,0.0,0.0,0.0,0.05,0.0,0.0,-0.010471975512,1.79769313486e+308,0.0,0.0,0.0,1.79769313486e+308,0.0,0.0,0.0,0.05,0.0,0.0,0.0,0.0,0.0,0.0,0.0,0.0,0.0,0.0,0.0,0.0
1494450137166527782,85,1494450137221118149,gyro_link,0.0,0.0,-0.00314158748588,0.999995065202,1.79769313486e+308,0.0,0.0,0.0,1.79769313486e+308,0.0,0.0,0.0,0.05,0.0,0.0,-0.00680678408278,1.79769313486e+308,0.0,0.0,0.0,1.79769313486e+308,0.0,0.0,0.0,0.05,0.0,0.0,0.0,0.0,0.0,0.0,0.0,0.0,0.0,0.0,0.0,0.0
1494450137185009736,86,1494450137240840430,gyro_link,0.0,0.0,-0.00314158748588,0.999995065202,1.79769313486e+308,0.0,0.0,0.0,1.79769313486e+308,0.0,0.0,0.0,0.05,0.0,0.0,-0.00418879020479,1.79769313486e+308,0.0,0.0,0.0,1.79769313486e+308,0.0,0.0,0.0,0.05,0.0,0.0,0.0,0.0,0.0,0.0,0.0,0.0,0.0,0.0,0.0,0.0
1494450137209629020,87,1494450137262953315,gyro_link,0.0,0.0,-0.00314158748588,0.999995065202,1.79769313486e+308,0.0,0.0,0.0,1.79769313486e+308,0.0,0.0,0.0,0.05,0.0,0.0,0.00174532925199,1.79769313486e+308,0.0,0.0,0.0,1.79769313486e+308,0.0,0.0,0.0,0.05,0.0,0.0,0.0,0.0,0.0,0.0,0.0,0.0,0.0,0.0,0.0,0.0
1494450137230619772,88,1494450137282331350,gyro_link,0.0,0.0,-0.00314158748588,0.999995065202,1.79769313486e+308,0.0,0.0,0.0,1.79769313486e+308,0.0,0.0,0.0,0.05,0.0,0.0,0.0010471975512,1.79769313486e+308,0.0,0.0,0.0,1.79769313486e+308,0.0,0.0,0.0,0.05,0.0,0.0,0.0,0.0,0.0,0.0,0.0,0.0,0.0,0.0,0.0,0.0
1494450137251339138,89,1494450137301358430,gyro_link,0.0,0.0,-0.00331611950106,0.999994501661,1.79769313486e+308,0.0,0.0,0.0,1.79769313486e+308,0.0,0.0,0.0,0.05,0.0,0.0,-0.0219911485751,1.79769313486e+308,0.0,0.0,0.0,1.79769313486e+308,0.0,0.0,0.0,0.05,0.0,0.0,0.0,0.0,0.0,0.0,0.0,0.0,0.0,0.0,0.0,0.0
1494450137268991542,90,1494450137322095494,gyro_link,0.0,0.0,-0.00357791733276,0.999993599233,1.79769313486e+308,0.0,0.0,0.0,1.79769313486e+308,0.0,0.0,0.0,0.05,0.0,0.0,-0.0335103216383,1.79769313486e+308,0.0,0.0,0.0,1.79769313486e+308,0.0,0.0,0.0,0.05,0.0,0.0,0.0,0.0,0.0,0.0,0.0,0.0,0.0,0.0,0.0,0.0
1494450137288702163,91,1494450137341306072,gyro_link,0.0,0.0,-0.00392698072381,0.999992289381,1.79769313486e+308,0.0,0.0,0.0,1.79769313486e+308,0.0,0.0,0.0,0.05,0.0,0.0,-0.0336848545635,1.79769313486e+308,0.0,0.0,0.0,1.79769313486e+308,0.0,0.0,0.0,0.05,0.0,0.0,0.0,0.0,0.0,0.0,0.0,0.0,0.0,0.0,0.0,0.0
1494450137308699015,92,1494450137361406808,gyro_link,0.0,0.0,-0.0041887779554,0.999991227031,1.79769313486e+308,0.0,0.0,0.0,1.79769313486e+308,0.0,0.0,0.0,0.05,0.0,0.0,-0.0204203522483,1.79769313486e+308,0.0,0.0,0.0,1.79769313486e+308,0.0,0.0,0.0,0.05,0.0,0.0,0.0,0.0,0.0,0.0,0.0,0.0,0.0,0.0,0.0,0.0
1494450137328612893,93,1494450137382572743,gyro_link,0.0,0.0,-0.00427604363636,0.999990857684,1.79769313486e+308,0.0,0.0,0.0,1.79769313486e+308,0.0,0.0,0.0,0.05,0.0,0.0,-0.0153588974176,1.79769313486e+308,0.0,0.0,0.0,1.79769313486e+308,0.0,0.0,0.0,0.05,0.0,0.0,0.0,0.0,0.0,0.0,0.0,0.0,0.0,0.0,0.0,0.0
1494450137347963995,94,1494450137401608323,gyro_link,0.0,0.0,-0.00462510602789,0.99998930414,1.79769313486e+308,0.0,0.0,0.0,1.79769313486e+308,0.0,0.0,0.0,0.05,0.0,0.0,-0.0284488668075,1.79769313486e+308,0.0,0.0,0.0,1.79769313486e+308,0.0,0.0,0.0,0.05,0.0,0.0,0.0,0.0,0.0,0.0,0.0,0.0,0.0,0.0,0.0,0.0
1494450137367075866,95,1494450137421338979,gyro_link,0.0,0.0,-0.00506143321981,0.999987190865,1.79769313486e+308,0.0,0.0,0.0,1.79769313486e+308,0.0,0.0,0.0,0.05,0.0,0.0,-0.052534410485,1.79769313486e+308,0.0,0.0,0.0,1.79769313486e+308,0.0,0.0,0.0,0.05,0.0,0.0,0.0,0.0,0.0,0.0,0.0,0.0,0.0,0.0,0.0,0.0
1494450137387011855,96,1494450137442315333,gyro_link,0.0,0.0,-0.00558502457083,0.999984403629,1.79769313486e+308,0.0,0.0,0.0,1.79769313486e+308,0.0,0.0,0.0,0.05,0.0,0.0,-0.0511381470834,1.79769313486e+308,0.0,0.0,0.0,1.79769313486e+308,0.0,0.0,0.0,0.05,0.0,0.0,0.0,0.0,0.0,0.0,0.0,0.0,0.0,0.0,0.0,0.0
1494450137406540758,97,1494450137461006916,gyro_link,0.0,0.0,-0.00593408462972,0.999982393165,1.79769313486e+308,0.0,0.0,0.0,1.79769313486e+308,0.0,0.0,0.0,0.05,0.0,0.0,-0.0287979326579,1.79769313486e+308,0.0,0.0,0.0,1.79769313486e+308,0.0,0.0,0.0,0.05,0.0,0.0,0.0,0.0,0.0,0.0,0.0,0.0,0.0,0.0,0.0,0.0
1494450137426525161,98,1494450137481149902,gyro_link,0.0,0.0,-0.00610861439068,0.999981342241,1.79769313486e+308,0.0,0.0,0.0,1.79769313486e+308,0.0,0.0,0.0,0.05,0.0,0.0,-0.0223402144255,1.79769313486e+308,0.0,0.0,0.0,1.79769313486e+308,0.0,0.0,0.0,0.05,0.0,0.0,0.0,0.0,0.0,0.0,0.0,0.0,0.0,0.0,0.0,0.0
1494450137446593909,99,1494450137500897766,gyro_link,0.0,0.0,-0.00645767334904,0.99997914901,1.79769313486e+308,0.0,0.0,0.0,1.79769313486e+308,0.0,0.0,0.0,0.05,0.0,0.0,-0.0413643032723,1.79769313486e+308,0.0,0.0,0.0,1.79769313486e+308,0.0,0.0,0.0,0.05,0.0,0.0,0.0,0.0,0.0,0.0,0.0,0.0,0.0,0.0,0.0,0.0
1494450137468460389,100,1494450137521412749,gyro_link,0.0,0.0,-0.00706852460725,0.999975017668,1.79769313486e+308,0.0,0.0,0.0,1.79769313486e+308,0.0,0.0,0.0,0.05,0.0,0.0,-0.0666715774262,1.79769313486e+308,0.0,0.0,0.0,1.79769313486e+308,0.0,0.0,0.0,0.05,0.0,0.0,0.0,0.0,0.0,0.0,0.0,0.0,0.0,0.0,0.0,0.0
1494450137487814845,101,1494450137541182989,gyro_link,0.0,0.0,-0.00759210930926,0.999971179523,1.79769313486e+308,0.0,0.0,0.0,1.79769313486e+308,0.0,0.0,0.0,0.05,0.0,0.0,-0.0401425727959,1.79769313486e+308,0.0,0.0,0.0,1.79769313486e+308,0.0,0.0,0.0,0.05,0.0,0.0,0.0,0.0,0.0,0.0,0.0,0.0,0.0,0.0,0.0,0.0
1494450137507765759,102,1494450137562426757,gyro_link,0.0,0.0,-0.00750484533293,0.999971838252,1.79769313486e+308,0.0,0.0,0.0,1.79769313486e+308,0.0,0.0,0.0,0.05,0.0,0.0,0.0254818070791,1.79769313486e+308,0.0,0.0,0.0,1.79769313486e+308,0.0,0.0,0.0,0.05,0.0,0.0,0.0,0.0,0.0,0.0,0.0,0.0,0.0,0.0,0.0,0.0
1494450137528068686,103,1494450137582815449,gyro_link,0.0,0.0,-0.00689399593551,0.999976236128,1.79769313486e+308,0.0,0.0,0.0,1.79769313486e+308,0.0,0.0,0.0,0.05,0.0,0.0,0.065624379875,1.79769313486e+308,0.0,0.0,0.0,1.79769313486e+308,0.0,0.0,0.0,0.05,0.0,0.0,0.0,0.0,0.0,0.0,0.0,0.0,0.0,0.0,0.0,0.0
1494450137548558387,104,1494450137602007569,gyro_link,0.0,0.0,-0.00602134953313,0.999981871511,1.79769313486e+308,0.0,0.0,0.0,1.79769313486e+308,0.0,0.0,0.0,0.05,0.0,0.0,0.0555014702134,1.79769313486e+308,0.0,0.0,0.0,1.79769313486e+308,0.0,0.0,0.0,0.05,0.0,0.0,0.0,0.0,0.0,0.0,0.0,0.0,0.0,0.0,0.0,0.0
1494450137566422575,105,1494450137620959190,gyro_link,0.0,0.0,-0.00567228965101,0.999983912436,1.79769313486e+308,0.0,0.0,0.0,1.79769313486e+308,0.0,0.0,0.0,0.05,0.0,0.0,0.0317649923863,1.79769313486e+308,0.0,0.0,0.0,1.79769313486e+308,0.0,0.0,0.0,0.05,0.0,0.0,0.0,0.0,0.0,0.0,0.0,0.0,0.0,0.0,0.0,0.0
1494450137586790922,106,1494450137640958178,gyro_link,0.0,0.0,-0.00541049428353,0.999985363169,1.79769313486e+308,0.0,0.0,0.0,1.79769313486e+308,0.0,0.0,0.0,0.05,0.0,0.0,0.0174532925199,1.79769313486e+308,0.0,0.0,0.0,1.79769313486e+308,0.0,0.0,0.0,0.05,0.0,0.0,0.0,0.0,0.0,0.0,0.0,0.0,0.0,0.0,0.0,0.0
1494450137609977658,107,1494450137664304969,gyro_link,0.0,0.0,-0.00541049428353,0.999985363169,1.79769313486e+308,0.0,0.0,0.0,1.79769313486e+308,0.0,0.0,0.0,0.05,0.0,0.0,-0.0012217304764,1.79769313486e+308,0.0,0.0,0.0,1.79769313486e+308,0.0,0.0,0.0,0.05,0.0,0.0,0.0,0.0,0.0,0.0,0.0,0.0,0.0,0.0,0.0,0.0
1494450137631358713,108,1494450137681953019,gyro_link,0.0,0.0,-0.00549775944811,0.999984887206,1.79769313486e+308,0.0,0.0,0.0,1.79769313486e+308,0.0,0.0,0.0,0.05,0.0,0.0,-0.0109955742876,1.79769313486e+308,0.0,0.0,0.0,1.79769313486e+308,0.0,0.0,0.0,0.05,0.0,0.0,0.0,0.0,0.0,0.0,0.0,0.0,0.0,0.0,0.0,0.0
1494450137650448239,109,1494450137701923215,gyro_link,0.0,0.0,-0.00567228965101,0.999983912436,1.79769313486e+308,0.0,0.0,0.0,1.79769313486e+308,0.0,0.0,0.0,0.05,0.0,0.0,-0.0181514242207,1.79769313486e+308,0.0,0.0,0.0,1.79769313486e+308,0.0,0.0,0.0,0.05,0.0,0.0,0.0,0.0,0.0,0.0,0.0,0.0,0.0,0.0,0.0,0.0
1494450137676233335,110,1494450137728387228,gyro_link,0.0,0.0,-0.00584681968112,0.999982907204,1.79769313486e+308,0.0,0.0,0.0,1.79769313486e+308,0.0,0.0,0.0,0.05,0.0,0.0,-0.0125663706144,1.79769313486e+308,0.0,0.0,0.0,1.79769313486e+308,0.0,0.0,0.0,0.05,0.0,0.0,0.0,0.0,0.0,0.0,0.0,0.0,0.0,0.0,0.0,0.0
1494450137687536462,111,1494450137742753974,gyro_link,0.0,0.0,-0.00584681968112,0.999982907204,1.79769313486e+308,0.0,0.0,0.0,1.79769313486e+308,0.0,0.0,0.0,0.05,0.0,0.0,-0.00488692190558,1.79769313486e+308,0.0,0.0,0.0,1.79769313486e+308,0.0,0.0,0.0,0.05,0.0,0.0,0.0,0.0,0.0,0.0,0.0,0.0,0.0,0.0,0.0,0.0
1494450137709212665,112,1494450137761721721,gyro_link,0.0,0.0,-0.00584681968112,0.999982907204,1.79769313486e+308,0.0,0.0,0.0,1.79769313486e+308,0.0,0.0,0.0,0.05,0.0,0.0,0.00488692190558,1.79769313486e+308,0.0,0.0,0.0,1.79769313486e+308,0.0,0.0,0.0,0.05,0.0,0.0,0.0,0.0,0.0,0.0,0.0,0.0,0.0,0.0,0.0,0.0
1494450137731824807,113,1494450137782409035,gyro_link,0.0,0.0,-0.00567228965101,0.999983912436,1.79769313486e+308,0.0,0.0,0.0,1.79769313486e+308,0.0,0.0,0.0,0.05,0.0,0.0,0.0202458193231,1.79769313486e+308,0.0,0.0,0.0,1.79769313486e+308,0.0,0.0,0.0,0.05,0.0,0.0,0.0,0.0,0.0,0.0,0.0,0.0,0.0,0.0,0.0,0.0
1494450137747123749,114,1494450137801513822,gyro_link,0.0,0.0,-0.00541049428353,0.999985363169,1.79769313486e+308,0.0,0.0,0.0,1.79769313486e+308,0.0,0.0,0.0,0.05,0.0,0.0,0.0190240888467,1.79769313486e+308,0.0,0.0,0.0,1.79769313486e+308,0.0,0.0,0.0,0.05,0.0,0.0,0.0,0.0,0.0,0.0,0.0,0.0,0.0,0.0,0.0,0.0
1494450137765432723,115,1494450137820861816,gyro_link,0.0,0.0,-0.00532322907774,0.999985831516,1.79769313486e+308,0.0,0.0,0.0,1.79769313486e+308,0.0,0.0,0.0,0.05,0.0,0.0,0.00890117918517,1.79769313486e+308,0.0,0.0,0.0,1.79769313486e+308,0.0,0.0,0.0,0.05,0.0,0.0,0.0,0.0,0.0,0.0,0.0,0.0,0.0,0.0,0.0,0.0
1494450137786403986,116,1494450137841371590,gyro_link,0.0,0.0,-0.00523596383142,0.999986292247,1.79769313486e+308,0.0,0.0,0.0,1.79769313486e+308,0.0,0.0,0.0,0.05,0.0,0.0,0.00785398163397,1.79769313486e+308,0.0,0.0,0.0,1.79769313486e+308,0.0,0.0,0.0,0.05,0.0,0.0,0.0,0.0,0.0,0.0,0.0,0.0,0.0,0.0,0.0,0.0
1494450137807049401,117,1494450137860952706,gyro_link,0.0,0.0,-0.00523596383142,0.999986292247,1.79769313486e+308,0.0,0.0,0.0,1.79769313486e+308,0.0,0.0,0.0,0.05,0.0,0.0,-0.00471238898038,1.79769313486e+308,0.0,0.0,0.0,1.79769313486e+308,0.0,0.0,0.0,0.05,0.0,0.0,0.0,0.0,0.0,0.0,0.0,0.0,0.0,0.0,0.0,0.0
1494450137867144241,118,1494450137880976777,gyro_link,0.0,0.0,-0.00541049428353,0.999985363169,1.79769313486e+308,0.0,0.0,0.0,1.79769313486e+308,0.0,0.0,0.0,0.05,0.0,0.0,-0.0129154364648,1.79769313486e+308,0.0,0.0,0.0,1.79769313486e+308,0.0,0.0,0.0,0.05,0.0,0.0,0.0,0.0,0.0,0.0,0.0,0.0,0.0,0.0,0.0,0.0
1494450137877788039,119,1494450137903453534,gyro_link,0.0,0.0,-0.00549775944811,0.999984887206,1.79769313486e+308,0.0,0.0,0.0,1.79769313486e+308,0.0,0.0,0.0,0.05,0.0,0.0,-0.0169296937443,1.79769313486e+308,0.0,0.0,0.0,1.79769313486e+308,0.0,0.0,0.0,0.05,0.0,0.0,0.0,0.0,0.0,0.0,0.0,0.0,0.0,0.0,0.0,0.0
1494450137877817489,120,1494450137921673162,gyro_link,0.0,0.0,-0.00558502457083,0.999984403629,1.79769313486e+308,0.0,0.0,0.0,1.79769313486e+308,0.0,0.0,0.0,0.05,0.0,0.0,-0.00226892802759,1.79769313486e+308,0.0,0.0,0.0,1.79769313486e+308,0.0,0.0,0.0,0.05,0.0,0.0,0.0,0.0,0.0,0.0,0.0,0.0,0.0,0.0,0.0,0.0
1494450137887569563,121,1494450137942367435,gyro_link,0.0,0.0,-0.00549775944811,0.999984887206,1.79769313486e+308,0.0,0.0,0.0,1.79769313486e+308,0.0,0.0,0.0,0.05,0.0,0.0,0.012217304764,1.79769313486e+308,0.0,0.0,0.0,1.79769313486e+308,0.0,0.0,0.0,0.05,0.0,0.0,0.0,0.0,0.0,0.0,0.0,0.0,0.0,0.0,0.0,0.0
1494450137906883672,122,1494450137960934310,gyro_link,0.0,0.0,-0.00541049428353,0.999985363169,1.79769313486e+308,0.0,0.0,0.0,1.79769313486e+308,0.0,0.0,0.0,0.05,0.0,0.0,0.00907571211037,1.79769313486e+308,0.0,0.0,0.0,1.79769313486e+308,0.0,0.0,0.0,0.05,0.0,0.0,0.0,0.0,0.0,0.0,0.0,0.0,0.0,0.0,0.0,0.0
1494450137946685806,123,1494450137982076079,gyro_link,0.0,0.0,-0.00532322907774,0.999985831516,1.79769313486e+308,0.0,0.0,0.0,1.79769313486e+308,0.0,0.0,0.0,0.05,0.0,0.0,0.00191986217719,1.79769313486e+308,0.0,0.0,0.0,1.79769313486e+308,0.0,0.0,0.0,0.05,0.0,0.0,0.0,0.0,0.0,0.0,0.0,0.0,0.0,0.0,0.0,0.0
1494450137950322740,124,1494450138001748903,gyro_link,0.0,0.0,-0.00541049428353,0.999985363169,1.79769313486e+308,0.0,0.0,0.0,1.79769313486e+308,0.0,0.0,0.0,0.05,0.0,0.0,-0.00820304748437,1.79769313486e+308,0.0,0.0,0.0,1.79769313486e+308,0.0,0.0,0.0,0.05,0.0,0.0,0.0,0.0,0.0,0.0,0.0,0.0,0.0,0.0,0.0,0.0
1494450137969831776,125,1494450138024144911,gyro_link,0.0,0.0,-0.00558502457083,0.999984403629,1.79769313486e+308,0.0,0.0,0.0,1.79769313486e+308,0.0,0.0,0.0,0.05,0.0,0.0,-0.0260054058547,1.79769313486e+308,0.0,0.0,0.0,1.79769313486e+308,0.0,0.0,0.0,0.05,0.0,0.0,0.0,0.0,0.0,0.0,0.0,0.0,0.0,0.0,0.0,0.0
1494450137992991740,126,1494450138042692994,gyro_link,0.0,0.0,-0.00593408462972,0.999982393165,1.79769313486e+308,0.0,0.0,0.0,1.79769313486e+308,0.0,0.0,0.0,0.05,0.0,0.0,-0.0363028484415,1.79769313486e+308,0.0,0.0,0.0,1.79769313486e+308,0.0,0.0,0.0,0.05,0.0,0.0,0.0,0.0,0.0,0.0,0.0,0.0,0.0,0.0,0.0,0.0
1494450138009663905,127,1494450138061967155,gyro_link,0.0,0.0,-0.00619587920171,0.999980805356,1.79769313486e+308,0.0,0.0,0.0,1.79769313486e+308,0.0,0.0,0.0,0.05,0.0,0.0,-0.0240855436775,1.79769313486e+308,0.0,0.0,0.0,1.79769313486e+308,0.0,0.0,0.0,0.05,0.0,0.0,0.0,0.0,0.0,0.0,0.0,0.0,0.0,0.0,0.0,0.0
1494450138029545407,128,1494450138082754677,gyro_link,0.0,0.0,-0.00637040868156,0.999979708741,1.79769313486e+308,0.0,0.0,0.0,1.79769313486e+308,0.0,0.0,0.0,0.05,0.0,0.0,-0.0137881010908,1.79769313486e+308,0.0,0.0,0.0,1.79769313486e+308,0.0,0.0,0.0,0.05,0.0,0.0,0.0,0.0,0.0,0.0,0.0,0.0,0.0,0.0,0.0,0.0
1494450138058191940,129,1494450138101802673,gyro_link,0.0,0.0,-0.00645767334904,0.99997914901,1.79769313486e+308,0.0,0.0,0.0,1.79769313486e+308,0.0,0.0,0.0,0.05,0.0,0.0,-0.0158824961931,1.79769313486e+308,0.0,0.0,0.0,1.79769313486e+308,0.0,0.0,0.0,0.05,0.0,0.0,0.0,0.0,0.0,0.0,0.0,0.0,0.0,0.0,0.0,0.0
1494450138067761664,130,1494450138121955034,gyro_link,0.0,0.0,-0.00663220253582,0.999978006703,1.79769313486e+308,0.0,0.0,0.0,1.79769313486e+308,0.0,0.0,0.0,0.05,0.0,0.0,-0.010471975512,1.79769313486e+308,0.0,0.0,0.0,1.79769313486e+308,0.0,0.0,0.0,0.05,0.0,0.0,0.0,0.0,0.0,0.0,0.0,0.0,0.0,0.0,0.0,0.0
1494450138099305886,131,1494450138141704024,gyro_link,0.0,0.0,-0.00663220253582,0.999978006703,1.79769313486e+308,0.0,0.0,0.0,1.79769313486e+308,0.0,0.0,0.0,0.05,0.0,0.0,0.00366519142919,1.79769313486e+308,0.0,0.0,0.0,1.79769313486e+308,0.0,0.0,0.0,0.05,0.0,0.0,0.0,0.0,0.0,0.0,0.0,0.0,0.0,0.0,0.0,0.0
1494450138108404635,132,1494450138162100216,gyro_link,0.0,0.0,-0.00654493796735,0.999978581664,1.79769313486e+308,0.0,0.0,0.0,1.79769313486e+308,0.0,0.0,0.0,0.05,0.0,0.0,0.00191986217719,1.79769313486e+308,0.0,0.0,0.0,1.79769313486e+308,0.0,0.0,0.0,0.05,0.0,0.0,0.0,0.0,0.0,0.0,0.0,0.0,0.0,0.0,0.0,0.0
1494450138129056813,133,1494450138183192902,gyro_link,0.0,0.0,-0.00671946705378,0.999977424126,1.79769313486e+308,0.0,0.0,0.0,1.79769313486e+308,0.0,0.0,0.0,0.05,0.0,0.0,-0.0260054058547,1.79769313486e+308,0.0,0.0,0.0,1.79769313486e+308,0.0,0.0,0.0,0.05,0.0,0.0,0.0,0.0,0.0,0.0,0.0,0.0,0.0,0.0,0.0,0.0
1494450138149293975,134,1494450138201914485,gyro_link,0.0,0.0,-0.00706852460725,0.999975017668,1.79769313486e+308,0.0,0.0,0.0,1.79769313486e+308,0.0,0.0,0.0,0.05,0.0,0.0,-0.0443313630007,1.79769313486e+308,0.0,0.0,0.0,1.79769313486e+308,0.0,0.0,0.0,0.05,0.0,0.0,0.0,0.0,0.0,0.0,0.0,0.0,0.0,0.0,0.0,0.0
1494450138171522729,135,1494450138223803497,gyro_link,0.0,0.0,-0.00759210930926,0.999971179523,1.79769313486e+308,0.0,0.0,0.0,1.79769313486e+308,0.0,0.0,0.0,0.05,0.0,0.0,-0.0469493568786,1.79769313486e+308,0.0,0.0,0.0,1.79769313486e+308,0.0,0.0,0.0,0.05,0.0,0.0,0.0,0.0,0.0,0.0,0.0,0.0,0.0,0.0,0.0,0.0
1494450138190241389,136,1494450138242786994,gyro_link,0.0,0.0,-0.00794116462979,0.999968468455,1.79769313486e+308,0.0,0.0,0.0,1.79769313486e+308,0.0,0.0,0.0,0.05,0.0,0.0,-0.0308923277603,1.79769313486e+308,0.0,0.0,0.0,1.79769313486e+308,0.0,0.0,0.0,0.05,0.0,0.0,0.0,0.0,0.0,0.0,0.0,0.0,0.0,0.0,0.0,0.0
1494450138210298160,137,1494450138262459484,gyro_link,0.0,0.0,-0.0080284283104,0.99996777165,1.79769313486e+308,0.0,0.0,0.0,1.79769313486e+308,0.0,0.0,0.0,0.05,0.0,0.0,-0.00191986217719,1.79769313486e+308,0.0,0.0,0.0,1.79769313486e+308,0.0,0.0,0.0,0.05,0.0,0.0,0.0,0.0,0.0,0.0,0.0,0.0,0.0,0.0,0.0,0.0
1494450138231492995,138,1494450138284706951,gyro_link,0.0,0.0,-0.00785390088871,0.999969157645,1.79769313486e+308,0.0,0.0,0.0,1.79769313486e+308,0.0,0.0,0.0,0.05,0.0,0.0,0.0132645023152,1.79769313486e+308,0.0,0.0,0.0,1.79769313486e+308,0.0,0.0,0.0,0.05,0.0,0.0,0.0,0.0,0.0,0.0,0.0,0.0,0.0,0.0,0.0,0.0
1494450138250066846,139,1494450138302862830,gyro_link,0.0,0.0,-0.00785390088871,0.999969157645,1.79769313486e+308,0.0,0.0,0.0,1.79769313486e+308,0.0,0.0,0.0,0.05,0.0,0.0,-0.00628318530718,1.79769313486e+308,0.0,0.0,0.0,1.79769313486e+308,0.0,0.0,0.0,0.05,0.0,0.0,0.0,0.0,0.0,0.0,0.0,0.0,0.0,0.0,0.0,0.0
1494450138270645555,140,1494450138322767860,gyro_link,0.0,0.0,-0.00820295548752,0.999966355195,1.79769313486e+308,0.0,0.0,0.0,1.79769313486e+308,0.0,0.0,0.0,0.05,0.0,0.0,-0.0485201532054,1.79769313486e+308,0.0,0.0,0.0,1.79769313486e+308,0.0,0.0,0.0,0.05,0.0,0.0,0.0,0.0,0.0,0.0,0.0,0.0,0.0,0.0,0.0,0.0
1494450138288269226,141,1494450138343051929,gyro_link,0.0,0.0,-0.00942463843314,0.999955587109,1.79769313486e+308,0.0,0.0,0.0,1.79769313486e+308,0.0,0.0,0.0,0.05,0.0,0.0,-0.0888372589265,1.79769313486e+308,0.0,0.0,0.0,1.79769313486e+308,0.0,0.0,0.0,0.05,0.0,0.0,0.0,0.0,0.0,0.0,0.0,0.0,0.0,0.0,0.0,0.0
1494450138306650270,142,1494450138361607221,gyro_link,0.0,0.0,-0.0102099987272,0.999947876605,1.79769313486e+308,0.0,0.0,0.0,1.79769313486e+308,0.0,0.0,0.0,0.05,0.0,0.0,-0.0766199541626,1.79769313486e+308,0.0,0.0,0.0,1.79769313486e+308,0.0,0.0,0.0,0.05,0.0,0.0,0.0,0.0,0.0,0.0,0.0,0.0,0.0,0.0,0.0,0.0
1494450138327657552,143,1494450138382163037,gyro_link,0.0,0.0,-0.0108208301821,0.999941453103,1.79769313486e+308,0.0,0.0,0.0,1.79769313486e+308,0.0,0.0,0.0,0.05,0.0,0.0,-0.0692895713042,1.79769313486e+308,0.0,0.0,0.0,1.79769313486e+308,0.0,0.0,0.0,0.05,0.0,0.0,0.0,0.0,0.0,0.0,0.0,0.0,0.0,0.0,0.0,0.0
1494450138347826155,144,1494450138401551280,gyro_link,0.0,0.0,-0.0114316575991,0.999934656467,1.79769313486e+308,0.0,0.0,0.0,1.79769313486e+308,0.0,0.0,0.0,0.05,0.0,0.0,-0.0570722665402,1.79769313486e+308,0.0,0.0,0.0,1.79769313486e+308,0.0,0.0,0.0,0.05,0.0,0.0,0.0,0.0,0.0,0.0,0.0,0.0,0.0,0.0,0.0,0.0
1494450138366995555,145,1494450138421804807,gyro_link,0.0,0.0,-0.0117806999367,0.999930605147,1.79769313486e+308,0.0,0.0,0.0,1.79769313486e+308,0.0,0.0,0.0,0.05,0.0,0.0,-0.0265290046303,1.79769313486e+308,0.0,0.0,0.0,1.79769313486e+308,0.0,0.0,0.0,0.05,0.0,0.0,0.0,0.0,0.0,0.0,0.0,0.0,0.0,0.0,0.0,0.0
1494450138395031805,146,1494450138443196032,gyro_link,0.0,0.0,-0.0116934394852,0.999931629399,1.79769313486e+308,0.0,0.0,0.0,1.79769313486e+308,0.0,0.0,0.0,0.05,0.0,0.0,0.0200712863979,1.79769313486e+308,0.0,0.0,0.0,1.79769313486e+308,0.0,0.0,0.0,0.05,0.0,0.0,0.0,0.0,0.0,0.0,0.0,0.0,0.0,0.0,0.0,0.0
1494450138413850887,147,1494450138462728607,gyro_link,0.0,0.0,-0.0111698749294,0.999937615001,1.79769313486e+308,0.0,0.0,0.0,1.79769313486e+308,0.0,0.0,0.0,0.05,0.0,0.0,0.0589921287174,1.79769313486e+308,0.0,0.0,0.0,1.79769313486e+308,0.0,0.0,0.0,0.05,0.0,0.0,0.0,0.0,0.0,0.0,0.0,0.0,0.0,0.0,0.0,0.0
1494450138429818140,148,1494450138482946176,gyro_link,0.0,0.0,-0.010559045754,0.999944251722,1.79769313486e+308,0.0,0.0,0.0,1.79769313486e+308,0.0,0.0,0.0,0.05,0.0,0.0,0.0624827872214,1.79769313486e+308,0.0,0.0,0.0,1.79769313486e+308,0.0,0.0,0.0,0.05,0.0,0.0,0.0,0.0,0.0,0.0,0.0,0.0,0.0,0.0,0.0,0.0
1494450138449441947,149,1494450138501660008,gyro_link,0.0,0.0,-0.0101227367745,0.999948763788,1.79769313486e+308,0.0,0.0,0.0,1.79769313486e+308,0.0,0.0,0.0,0.05,0.0,0.0,0.046425758103,1.79769313486e+308,0.0,0.0,0.0,1.79769313486e+308,0.0,0.0,0.0,0.05,0.0,0.0,0.0,0.0,0.0,0.0,0.0,0.0,0.0,0.0,0.0,0.0
1494450138468038554,150,1494450138521866619,gyro_link,0.0,0.0,-0.00986095045636,0.999951379646,1.79769313486e+308,0.0,0.0,0.0,1.79769313486e+308,0.0,0.0,0.0,0.05,0.0,0.0,0.0129154364648,1.79769313486e+308,0.0,0.0,0.0,1.79769313486e+308,0.0,0.0,0.0,0.05,0.0,0.0,0.0,0.0,0.0,0.0,0.0,0.0,0.0,0.0,0.0,0.0
1494450138488692111,151,1494450138542547225,gyro_link,0.0,0.0,-0.00994821263837,0.999950515308,1.79769313486e+308,0.0,0.0,0.0,1.79769313486e+308,0.0,0.0,0.0,0.05,0.0,0.0,-0.00645771823238,1.79769313486e+308,0.0,0.0,0.0,1.79769313486e+308,0.0,0.0,0.0,0.05,0.0,0.0,0.0,0.0,0.0,0.0,0.0,0.0,0.0,0.0,0.0,0.0
1494450138509556694,152,1494450138561592596,gyro_link,0.0,0.0,-0.0100354747446,0.999949643355,1.79769313486e+308,0.0,0.0,0.0,1.79769313486e+308,0.0,0.0,0.0,0.05,0.0,0.0,-0.0179768912955,1.79769313486e+308,0.0,0.0,0.0,1.79769313486e+308,0.0,0.0,0.0,0.05,0.0,0.0,0.0,0.0,0.0,0.0,0.0,0.0,0.0,0.0,0.0,0.0
1494450138534573324,153,1494450138583088362,gyro_link,0.0,0.0,-0.0102099987272,0.999947876605,1.79769313486e+308,0.0,0.0,0.0,1.79769313486e+308,0.0,0.0,0.0,0.05,0.0,0.0,-0.0172787595947,1.79769313486e+308,0.0,0.0,0.0,1.79769313486e+308,0.0,0.0,0.0,0.05,0.0,0.0,0.0,0.0,0.0,0.0,0.0,0.0,0.0,0.0,0.0,0.0
1494450138555235607,154,1494450138602312690,gyro_link,0.0,0.0,-0.0103845223988,0.999946079394,1.79769313486e+308,0.0,0.0,0.0,1.79769313486e+308,0.0,0.0,0.0,0.05,0.0,0.0,-0.00890117918517,1.79769313486e+308,0.0,0.0,0.0,1.79769313486e+308,0.0,0.0,0.0,0.05,0.0,0.0,0.0,0.0,0.0,0.0,0.0,0.0,0.0,0.0,0.0,0.0
1494450138575392387,155,1494450138623297377,gyro_link,0.0,0.0,-0.0102972606022,0.999946981807,1.79769313486e+308,0.0,0.0,0.0,1.79769313486e+308,0.0,0.0,0.0,0.05,0.0,0.0,0.00802851455917,1.79769313486e+308,0.0,0.0,0.0,1.79769313486e+308,0.0,0.0,0.0,0.05,0.0,0.0,0.0,0.0,0.0,0.0,0.0,0.0,0.0,0.0,0.0,0.0
1494450138589543491,156,1494450138642475497,gyro_link,0.0,0.0,-0.0102099987272,0.999947876605,1.79769313486e+308,0.0,0.0,0.0,1.79769313486e+308,0.0,0.0,0.0,0.05,0.0,0.0,0.0150098315672,1.79769313486e+308,0.0,0.0,0.0,1.79769313486e+308,0.0,0.0,0.0,0.05,0.0,0.0,0.0,0.0,0.0,0.0,0.0,0.0,0.0,0.0,0.0,0.0
1494450138607988775,157,1494450138661668450,gyro_link,0.0,0.0,-0.00994821263837,0.999950515308,1.79769313486e+308,0.0,0.0,0.0,1.79769313486e+308,0.0,0.0,0.0,0.05,0.0,0.0,0.0247836753783,1.79769313486e+308,0.0,0.0,0.0,1.79769313486e+308,0.0,0.0,0.0,0.05,0.0,0.0,0.0,0.0,0.0,0.0,0.0,0.0,0.0,0.0,0.0,0.0
1494450138627617495,158,1494450138682717928,gyro_link,0.0,0.0,-0.00968642586771,0.999953085476,1.79769313486e+308,0.0,0.0,0.0,1.79769313486e+308,0.0,0.0,0.0,0.05,0.0,0.0,0.0328121899375,1.79769313486e+308,0.0,0.0,0.0,1.79769313486e+308,0.0,0.0,0.0,0.05,0.0,0.0,0.0,0.0,0.0,0.0,0.0,0.0,0.0,0.0,0.0,0.0
1494450138646530553,159,1494450138701678050,gyro_link,0.0,0.0,-0.00942463843314,0.999955587109,1.79769313486e+308,0.0,0.0,0.0,1.79769313486e+308,0.0,0.0,0.0,0.05,0.0,0.0,0.0223402144255,1.79769313486e+308,0.0,0.0,0.0,1.79769313486e+308,0.0,0.0,0.0,0.05,0.0,0.0,0.0,0.0,0.0,0.0,0.0,0.0,0.0,0.0,0.0,0.0
1494450138668964817,160,1494450138722676820,gyro_link,0.0,0.0,-0.00942463843314,0.999955587109,1.79769313486e+308,0.0,0.0,0.0,1.79769313486e+308,0.0,0.0,0.0,0.05,0.0,0.0,-0.014835298642,1.79769313486e+308,0.0,0.0,0.0,1.79769313486e+308,0.0,0.0,0.0,0.05,0.0,0.0,0.0,0.0,0.0,0.0,0.0,0.0,0.0,0.0,0.0,0.0
1494450138691304007,161,1494450138743593091,gyro_link,0.0,0.0,-0.00968642586771,0.999953085476,1.79769313486e+308,0.0,0.0,0.0,1.79769313486e+308,0.0,0.0,0.0,0.05,0.0,0.0,-0.0223402144255,1.79769313486e+308,0.0,0.0,0.0,1.79769313486e+308,0.0,0.0,0.0,0.05,0.0,0.0,0.0,0.0,0.0,0.0,0.0,0.0,0.0,0.0,0.0,0.0
1494450138717173369,162,1494450138763548162,gyro_link,0.0,0.0,-0.00986095045636,0.999951379646,1.79769313486e+308,0.0,0.0,0.0,1.79769313486e+308,0.0,0.0,0.0,0.05,0.0,0.0,-0.0223402144255,1.79769313486e+308,0.0,0.0,0.0,1.79769313486e+308,0.0,0.0,0.0,0.05,0.0,0.0,0.0,0.0,0.0,0.0,0.0,0.0,0.0,0.0,0.0,0.0
1494450138731765190,163,1494450138783951271,gyro_link,0.0,0.0,-0.0100354747446,0.999949643355,1.79769313486e+308,0.0,0.0,0.0,1.79769313486e+308,0.0,0.0,0.0,0.05,0.0,0.0,-0.0179768912955,1.79769313486e+308,0.0,0.0,0.0,1.79769313486e+308,0.0,0.0,0.0,0.05,0.0,0.0,0.0,0.0,0.0,0.0,0.0,0.0,0.0,0.0,0.0,0.0
1494450138755784378,164,1494450138803656011,gyro_link,0.0,0.0,-0.0101227367745,0.999948763788,1.79769313486e+308,0.0,0.0,0.0,1.79769313486e+308,0.0,0.0,0.0,0.05,0.0,0.0,0.000698131700798,1.79769313486e+308,0.0,0.0,0.0,1.79769313486e+308,0.0,0.0,0.0,0.05,0.0,0.0,0.0,0.0,0.0,0.0,0.0,0.0,0.0,0.0,0.0,0.0
1494450138769101096,165,1494450138823023754,gyro_link,0.0,0.0,-0.0100354747446,0.999949643355,1.79769313486e+308,0.0,0.0,0.0,1.79769313486e+308,0.0,0.0,0.0,0.05,0.0,0.0,0.00593411945678,1.79769313486e+308,0.0,0.0,0.0,1.79769313486e+308,0.0,0.0,0.0,0.05,0.0,0.0,0.0,0.0,0.0,0.0,0.0,0.0,0.0,0.0,0.0,0.0
1494450138828612591,166,1494450138882646928,gyro_link,0.0,0.0,-0.0100354747446,0.999949643355,1.79769313486e+308,0.0,0.0,0.0,1.79769313486e+308,0.0,0.0,0.0,0.05,0.0,0.0,-0.014835298642,1.79769313486e+308,0.0,0.0,0.0,1.79769313486e+308,0.0,0.0,0.0,0.05,0.0,0.0,0.0,0.0,0.0,0.0,0.0,0.0,0.0,0.0,0.0,0.0
1494450138847987775,167,1494450138902513500,gyro_link,0.0,0.0,-0.0102099987272,0.999947876605,1.79769313486e+308,0.0,0.0,0.0,1.79769313486e+308,0.0,0.0,0.0,0.05,0.0,0.0,-0.0289724655831,1.79769313486e+308,0.0,0.0,0.0,1.79769313486e+308,0.0,0.0,0.0,0.05,0.0,0.0,0.0,0.0,0.0,0.0,0.0,0.0,0.0,0.0,0.0,0.0
1494450138874356282,168,1494450138924340805,gyro_link,0.0,0.0,-0.010559045754,0.999944251722,1.79769313486e+308,0.0,0.0,0.0,1.79769313486e+308,0.0,0.0,0.0,0.05,0.0,0.0,-0.014835298642,1.79769313486e+308,0.0,0.0,0.0,1.79769313486e+308,0.0,0.0,0.0,0.05,0.0,0.0,0.0,0.0,0.0,0.0,0.0,0.0,0.0,0.0,0.0,0.0
1494450138893356746,169,1494450138944083086,gyro_link,0.0,0.0,-0.0106463073113,0.999943326464,1.79769313486e+308,0.0,0.0,0.0,1.79769313486e+308,0.0,0.0,0.0,0.05,0.0,0.0,-0.00418879020479,1.79769313486e+308,0.0,0.0,0.0,1.79769313486e+308,0.0,0.0,0.0,0.05,0.0,0.0,0.0,0.0,0.0,0.0,0.0,0.0,0.0,0.0,0.0,0.0
1494450138911255474,170,1494450138963799826,gyro_link,0.0,0.0,-0.0106463073113,0.999943326464,1.79769313486e+308,0.0,0.0,0.0,1.79769313486e+308,0.0,0.0,0.0,0.05,0.0,0.0,0.000523598775598,1.79769313486e+308,0.0,0.0,0.0,1.79769313486e+308,0.0,0.0,0.0,0.05,0.0,0.0,0.0,0.0,0.0,0.0,0.0,0.0,0.0,0.0,0.0,0.0
1494450138939657022,171,1494450138983961354,gyro_link,0.0,0.0,-0.010559045754,0.999944251722,1.79769313486e+308,0.0,0.0,0.0,1.79769313486e+308,0.0,0.0,0.0,0.05,0.0,0.0,0.0102974425868,1.79769313486e+308,0.0,0.0,0.0,1.79769313486e+308,0.0,0.0,0.0,0.05,0.0,0.0,0.0,0.0,0.0,0.0,0.0,0.0,0.0,0.0,0.0,0.0
1494450138953655389,172,1494450139004249464,gyro_link,0.0,0.0,-0.0104717841162,0.999945169366,1.79769313486e+308,0.0,0.0,0.0,1.79769313486e+308,0.0,0.0,0.0,0.05,0.0,0.0,0.00733038285838,1.79769313486e+308,0.0,0.0,0.0,1.79769313486e+308,0.0,0.0,0.0,0.05,0.0,0.0,0.0,0.0,0.0,0.0,0.0,0.0,0.0,0.0,0.0,0.0
1494450138968549341,173,1494450139023092879,gyro_link,0.0,0.0,-0.0104717841162,0.999945169366,1.79769313486e+308,0.0,0.0,0.0,1.79769313486e+308,0.0,0.0,0.0,0.05,0.0,0.0,-0.000349065850399,1.79769313486e+308,0.0,0.0,0.0,1.79769313486e+308,0.0,0.0,0.0,0.05,0.0,0.0,0.0,0.0,0.0,0.0,0.0,0.0,0.0,0.0,0.0,0.0
1494450138990161249,174,1494450139042415914,gyro_link,0.0,0.0,-0.010559045754,0.999944251722,1.79769313486e+308,0.0,0.0,0.0,1.79769313486e+308,0.0,0.0,0.0,0.05,0.0,0.0,-0.0116937059884,1.79769313486e+308,0.0,0.0,0.0,1.79769313486e+308,0.0,0.0,0.0,0.05,0.0,0.0,0.0,0.0,0.0,0.0,0.0,0.0,0.0,0.0,0.0,0.0
1494450139008504394,175,1494450139062554442,gyro_link,0.0,0.0,-0.0107335687876,0.999942393591,1.79769313486e+308,0.0,0.0,0.0,1.79769313486e+308,0.0,0.0,0.0,0.05,0.0,0.0,-0.0279252680319,1.79769313486e+308,0.0,0.0,0.0,1.79769313486e+308,0.0,0.0,0.0,0.05,0.0,0.0,0.0,0.0,0.0,0.0,0.0,0.0,0.0,0.0,0.0,0.0
1494450139029876728,176,1494450139083759169,gyro_link,0.0,0.0,-0.0111698749294,0.999937615001,1.79769313486e+308,0.0,0.0,0.0,1.79769313486e+308,0.0,0.0,0.0,0.05,0.0,0.0,-0.0457276264023,1.79769313486e+308,0.0,0.0,0.0,1.79769313486e+308,0.0,0.0,0.0,0.05,0.0,0.0,0.0,0.0,0.0,0.0,0.0,0.0,0.0,0.0,0.0,0.0
1494450139050504683,177,1494450139103480326,gyro_link,0.0,0.0,-0.0116061789447,0.999932646037,1.79769313486e+308,0.0,0.0,0.0,1.79769313486e+308,0.0,0.0,0.0,0.05,0.0,0.0,-0.0181514242207,1.79769313486e+308,0.0,0.0,0.0,1.79769313486e+308,0.0,0.0,0.0,0.05,0.0,0.0,0.0,0.0,0.0,0.0,0.0,0.0,0.0,0.0,0.0,0.0
1494450139073859331,178,1494450139125153465,gyro_link,0.0,0.0,-0.0116061789447,0.999932646037,1.79769313486e+308,0.0,0.0,0.0,1.79769313486e+308,0.0,0.0,0.0,0.05,0.0,0.0,0.00872664625997,1.79769313486e+308,0.0,0.0,0.0,1.79769313486e+308,0.0,0.0,0.0,0.05,0.0,0.0,0.0,0.0,0.0,0.0,0.0,0.0,0.0,0.0,0.0,0.0
1494450139088826543,179,1494450139142663225,gyro_link,0.0,0.0,-0.0114316575991,0.999934656467,1.79769313486e+308,0.0,0.0,0.0,1.79769313486e+308,0.0,0.0,0.0,0.05,0.0,0.0,0.0258308729295,1.79769313486e+308,0.0,0.0,0.0,1.79769313486e+308,0.0,0.0,0.0,0.05,0.0,0.0,0.0,0.0,0.0,0.0,0.0,0.0,0.0,0.0,0.0,0.0
1494450139107044181,180,1494450139162444464,gyro_link,0.0,0.0,-0.0112571359053,0.999936636438,1.79769313486e+308,0.0,0.0,0.0,1.79769313486e+308,0.0,0.0,0.0,0.05,0.0,0.0,-0.000174532925199,1.79769313486e+308,0.0,0.0,0.0,1.79769313486e+308,0.0,0.0,0.0,0.05,0.0,0.0,0.0,0.0,0.0,0.0,0.0,0.0,0.0,0.0,0.0,0.0
1494450139127970884,181,1494450139182474618,gyro_link,0.0,0.0,-0.0116934394852,0.999931629399,1.79769313486e+308,0.0,0.0,0.0,1.79769313486e+308,0.0,0.0,0.0,0.05,0.0,0.0,-0.0485201532054,1.79769313486e+308,0.0,0.0,0.0,1.79769313486e+308,0.0,0.0,0.0,0.05,0.0,0.0,0.0,0.0,0.0,0.0,0.0,0.0,0.0,0.0,0.0,0.0
1494450139147827938,182,1494450139202492647,gyro_link,0.0,0.0,-0.0123042607385,0.999924299719,1.79769313486e+308,0.0,0.0,0.0,1.79769313486e+308,0.0,0.0,0.0,0.05,0.0,0.0,-0.0729547627334,1.79769313486e+308,0.0,0.0,0.0,1.79769313486e+308,0.0,0.0,0.0,0.05,0.0,0.0,0.0,0.0,0.0,0.0,0.0,0.0,0.0,0.0,0.0,0.0
1494450139170746710,183,1494450139224463992,gyro_link,0.0,0.0,-0.0130023365353,0.999915466049,1.79769313486e+308,0.0,0.0,0.0,1.79769313486e+308,0.0,0.0,0.0,0.05,0.0,0.0,-0.0745255590602,1.79769313486e+308,0.0,0.0,0.0,1.79769313486e+308,0.0,0.0,0.0,0.05,0.0,0.0,0.0,0.0,0.0,0.0,0.0,0.0,0.0,0.0,0.0,0.0
1494450139188144477,184,1494450139242635996,gyro_link,0.0,0.0,-0.013700405995,0.999906145033,1.79769313486e+308,0.0,0.0,0.0,1.79769313486e+308,0.0,0.0,0.0,0.05,0.0,0.0,-0.0685914396034,1.79769313486e+308,0.0,0.0,0.0,1.79769313486e+308,0.0,0.0,0.0,0.05,0.0,0.0,0.0,0.0,0.0,0.0,0.0,0.0,0.0,0.0,0.0,0.0
1494450139207988356,185,1494450139262385153,gyro_link,0.0,0.0,-0.0143112113063,0.999897589372,1.79769313486e+308,0.0,0.0,0.0,1.79769313486e+308,0.0,0.0,0.0,0.05,0.0,0.0,-0.0561996019142,1.79769313486e+308,0.0,0.0,0.0,1.79769313486e+308,0.0,0.0,0.0,0.05,0.0,0.0,0.0,0.0,0.0,0.0,0.0,0.0,0.0,0.0,0.0,0.0
1494450139228121000,186,1494450139282438682,gyro_link,0.0,0.0,-0.0146602405297,0.999892532899,1.79769313486e+308,0.0,0.0,0.0,1.79769313486e+308,0.0,0.0,0.0,0.05,0.0,0.0,-0.0289724655831,1.79769313486e+308,0.0,0.0,0.0,1.79769313486e+308,0.0,0.0,0.0,0.05,0.0,0.0,0.0,0.0,0.0,0.0,0.0,0.0,0.0,0.0,0.0,0.0
1494450139249212846,187,1494450139303425785,gyro_link,0.0,0.0,-0.0143984687773,0.999896336675,1.79769313486e+308,0.0,0.0,0.0,1.79769313486e+308,0.0,0.0,0.0,0.05,0.0,0.0,0.0338593874887,1.79769313486e+308,0.0,0.0,0.0,1.79769313486e+308,0.0,0.0,0.0,0.05,0.0,0.0,0.0,0.0,0.0,0.0,0.0,0.0,0.0,0.0,0.0,0.0
1494450139270542864,188,1494450139323272316,gyro_link,0.0,0.0,-0.0138749223299,0.999903738632,1.79769313486e+308,0.0,0.0,0.0,1.79769313486e+308,0.0,0.0,0.0,0.05,0.0,0.0,0.0598647933434,1.79769313486e+308,0.0,0.0,0.0,1.79769313486e+308,0.0,0.0,0.0,0.05,0.0,0.0,0.0,0.0,0.0,0.0,0.0,0.0,0.0,0.0,0.0,0.0
1494450139287547975,189,1494450139342360478,gyro_link,0.0,0.0,-0.0132641133436,0.999912027779,1.79769313486e+308,0.0,0.0,0.0,1.79769313486e+308,0.0,0.0,0.0,0.05,0.0,0.0,0.0607374579694,1.79769313486e+308,0.0,0.0,0.0,1.79769313486e+308,0.0,0.0,0.0,0.05,0.0,0.0,0.0,0.0,0.0,0.0,0.0,0.0,0.0,0.0,0.0,0.0
1494450139308999458,190,1494450139363371374,gyro_link,0.0,0.0,-0.0129150774003,0.99991659691,1.79769313486e+308,0.0,0.0,0.0,1.79769313486e+308,0.0,0.0,0.0,0.05,0.0,0.0,0.0331612557879,1.79769313486e+308,0.0,0.0,0.0,1.79769313486e+308,0.0,0.0,0.0,0.05,0.0,0.0,0.0,0.0,0.0,0.0,0.0,0.0,0.0,0.0,0.0,0.0
1494450139328914181,191,1494450139383334403,gyro_link,0.0,0.0,-0.0127405588359,0.999918835786,1.79769313486e+308,0.0,0.0,0.0,1.79769313486e+308,0.0,0.0,0.0,0.05,0.0,0.0,0.0115191730632,1.79769313486e+308,0.0,0.0,0.0,1.79769313486e+308,0.0,0.0,0.0,0.05,0.0,0.0,0.0,0.0,0.0,0.0,0.0,0.0,0.0,0.0,0.0,0.0
1494450139347452953,192,1494450139402422399,gyro_link,0.0,0.0,-0.012827818167,0.999917720156,1.79769313486e+308,0.0,0.0,0.0,1.79769313486e+308,0.0,0.0,0.0,0.05,0.0,0.0,-0.00907571211037,1.79769313486e+308,0.0,0.0,0.0,1.79769313486e+308,0.0,0.0,0.0,0.05,0.0,0.0,0.0,0.0,0.0,0.0,0.0,0.0,0.0,0.0,0.0,0.0
1494450139393336370,193,1494450139423182380,gyro_link,0.0,0.0,-0.0129150774003,0.99991659691,1.79769313486e+308,0.0,0.0,0.0,1.79769313486e+308,0.0,0.0,0.0,0.05,0.0,0.0,-0.0164060949687,1.79769313486e+308,0.0,0.0,0.0,1.79769313486e+308,0.0,0.0,0.0,0.05,0.0,0.0,0.0,0.0,0.0,0.0,0.0,0.0,0.0,0.0,0.0,0.0
1494450139404852125,194,1494450139443509781,gyro_link,0.0,0.0,-0.0130895955713,0.999914327574,1.79769313486e+308,0.0,0.0,0.0,1.79769313486e+308,0.0,0.0,0.0,0.05,0.0,0.0,-0.0155334303427,1.79769313486e+308,0.0,0.0,0.0,1.79769313486e+308,0.0,0.0,0.0,0.05,0.0,0.0,0.0,0.0,0.0,0.0,0.0,0.0,0.0,0.0,0.0,0.0
1494450139411829585,195,1494450139463396770,gyro_link,0.0,0.0,-0.0132641133436,0.999912027779,1.79769313486e+308,0.0,0.0,0.0,1.79769313486e+308,0.0,0.0,0.0,0.05,0.0,0.0,-0.0204203522483,1.79769313486e+308,0.0,0.0,0.0,1.79769313486e+308,0.0,0.0,0.0,0.05,0.0,0.0,0.0,0.0,0.0,0.0,0.0,0.0,0.0,0.0,0.0,0.0
1494450139457139412,196,1494450139483923336,gyro_link,0.0,0.0,-0.0134386307119,0.999909697525,1.79769313486e+308,0.0,0.0,0.0,1.79769313486e+308,0.0,0.0,0.0,0.05,0.0,0.0,-0.00191986217719,1.79769313486e+308,0.0,0.0,0.0,1.79769313486e+308,0.0,0.0,0.0,0.05,0.0,0.0,0.0,0.0,0.0,0.0,0.0,0.0,0.0,0.0,0.0,0.0
1494450139483645017,197,1494450139504721858,gyro_link,0.0,0.0,-0.0132641133436,0.999912027779,1.79769313486e+308,0.0,0.0,0.0,1.79769313486e+308,0.0,0.0,0.0,0.05,0.0,0.0,0.0251327412287,1.79769313486e+308,0.0,0.0,0.0,1.79769313486e+308,0.0,0.0,0.0,0.05,0.0,0.0,0.0,0.0,0.0,0.0,0.0,0.0,0.0,0.0,0.0,0.0
1494450139491740756,198,1494450139524564639,gyro_link,0.0,0.0,-0.012827818167,0.999917720156,1.79769313486e+308,0.0,0.0,0.0,1.79769313486e+308,0.0,0.0,0.0,0.05,0.0,0.0,0.0431096325243,1.79769313486e+308,0.0,0.0,0.0,1.79769313486e+308,0.0,0.0,0.0,0.05,0.0,0.0,0.0,0.0,0.0,0.0,0.0,0.0,0.0,0.0,0.0,0.0
1494450139491757551,199,1494450139543696092,gyro_link,0.0,0.0,-0.0124787802632,0.99992213699,1.79769313486e+308,0.0,0.0,0.0,1.79769313486e+308,0.0,0.0,0.0,0.05,0.0,0.0,0.0312413936107,1.79769313486e+308,0.0,0.0,0.0,1.79769313486e+308,0.0,0.0,0.0,0.05,0.0,0.0,0.0,0.0,0.0,0.0,0.0,0.0,0.0,0.0,0.0,0.0
1494450139509611951,200,1494450139563505582,gyro_link,0.0,0.0,-0.0123042607385,0.999924299719,1.79769313486e+308,0.0,0.0,0.0,1.79769313486e+308,0.0,0.0,0.0,0.05,0.0,0.0,0.0144862327916,1.79769313486e+308,0.0,0.0,0.0,1.79769313486e+308,0.0,0.0,0.0,0.05,0.0,0.0,0.0,0.0,0.0,0.0,0.0,0.0,0.0,0.0,0.0,0.0
1494450139536059041,201,1494450139591477248,gyro_link,0.0,0.0,-0.0123042607385,0.999924299719,1.79769313486e+308,0.0,0.0,0.0,1.79769313486e+308,0.0,0.0,0.0,0.05,0.0,0.0,-0.00174532925199,1.79769313486e+308,0.0,0.0,0.0,1.79769313486e+308,0.0,0.0,0.0,0.05,0.0,0.0,0.0,0.0,0.0,0.0,0.0,0.0,0.0,0.0,0.0,0.0
1494450139561564571,202,1494450139603509765,gyro_link,0.0,0.0,-0.012391520548,0.999923222162,1.79769313486e+308,0.0,0.0,0.0,1.79769313486e+308,0.0,0.0,0.0,0.05,0.0,0.0,-0.0129154364648,1.79769313486e+308,0.0,0.0,0.0,1.79769313486e+308,0.0,0.0,0.0,0.05,0.0,0.0,0.0,0.0,0.0,0.0,0.0,0.0,0.0,0.0,0.0,0.0
1494450139576509056,203,1494450139623728792,gyro_link,0.0,0.0,-0.0125660398834,0.999921044204,1.79769313486e+308,0.0,0.0,0.0,1.79769313486e+308,0.0,0.0,0.0,0.05,0.0,0.0,-0.0164060949687,1.79769313486e+308,0.0,0.0,0.0,1.79769313486e+308,0.0,0.0,0.0,0.05,0.0,0.0,0.0,0.0,0.0,0.0,0.0,0.0,0.0,0.0,0.0,0.0
1494450139590112283,204,1494450139643159660,gyro_link,0.0,0.0,-0.0126532994078,0.999919943803,1.79769313486e+308,0.0,0.0,0.0,1.79769313486e+308,0.0,0.0,0.0,0.05,0.0,0.0,-0.00593411945678,1.79769313486e+308,0.0,0.0,0.0,1.79769313486e+308,0.0,0.0,0.0,0.05,0.0,0.0,0.0,0.0,0.0,0.0,0.0,0.0,0.0,0.0,0.0,0.0
1494450139609178730,205,1494450139663546311,gyro_link,0.0,0.0,-0.0127405588359,0.999918835786,1.79769313486e+308,0.0,0.0,0.0,1.79769313486e+308,0.0,0.0,0.0,0.05,0.0,0.0,-0.00314159265359,1.79769313486e+308,0.0,0.0,0.0,1.79769313486e+308,0.0,0.0,0.0,0.05,0.0,0.0,0.0,0.0,0.0,0.0,0.0,0.0,0.0,0.0,0.0,0.0
1494450139628977590,206,1494450139683247551,gyro_link,0.0,0.0,-0.0126532994078,0.999919943803,1.79769313486e+308,0.0,0.0,0.0,1.79769313486e+308,0.0,0.0,0.0,0.05,0.0,0.0,0.010471975512,1.79769313486e+308,0.0,0.0,0.0,1.79769313486e+308,0.0,0.0,0.0,0.05,0.0,0.0,0.0,0.0,0.0,0.0,0.0,0.0,0.0,0.0,0.0,0.0
1494450139649169673,207,1494450139703247497,gyro_link,0.0,0.0,-0.0125660398834,0.999921044204,1.79769313486e+308,0.0,0.0,0.0,1.79769313486e+308,0.0,0.0,0.0,0.05,0.0,0.0,0.00767944870878,1.79769313486e+308,0.0,0.0,0.0,1.79769313486e+308,0.0,0.0,0.0,0.05,0.0,0.0,0.0,0.0,0.0,0.0,0.0,0.0,0.0,0.0,0.0,0.0
1494450139669680412,208,1494450139723359192,gyro_link,0.0,0.0,-0.0126532994078,0.999919943803,1.79769313486e+308,0.0,0.0,0.0,1.79769313486e+308,0.0,0.0,0.0,0.05,0.0,0.0,-0.0116937059884,1.79769313486e+308,0.0,0.0,0.0,1.79769313486e+308,0.0,0.0,0.0,0.05,0.0,0.0,0.0,0.0,0.0,0.0,0.0,0.0,0.0,0.0,0.0,0.0
1494450139693172836,209,1494450139744506753,gyro_link,0.0,0.0,-0.0129150774003,0.99991659691,1.79769313486e+308,0.0,0.0,0.0,1.79769313486e+308,0.0,0.0,0.0,0.05,0.0,0.0,-0.0356047167407,1.79769313486e+308,0.0,0.0,0.0,1.79769313486e+308,0.0,0.0,0.0,0.05,0.0,0.0,0.0,0.0,0.0,0.0,0.0,0.0,0.0,0.0,0.0,0.0
1494450139708292738,210,1494450139763404000,gyro_link,0.0,0.0,-0.0132641133436,0.999912027779,1.79769313486e+308,0.0,0.0,0.0,1.79769313486e+308,0.0,0.0,0.0,0.05,0.0,0.0,-0.0310668606855,1.79769313486e+308,0.0,0.0,0.0,1.79769313486e+308,0.0,0.0,0.0,0.05,0.0,0.0,0.0,0.0,0.0,0.0,0.0,0.0,0.0,0.0,0.0,0.0
1494450139727732108,211,1494450139783220656,gyro_link,0.0,0.0,-0.0133513720786,0.999910866459,1.79769313486e+308,0.0,0.0,0.0,1.79769313486e+308,0.0,0.0,0.0,0.05,0.0,0.0,-0.00209439510239,1.79769313486e+308,0.0,0.0,0.0,1.79769313486e+308,0.0,0.0,0.0,0.05,0.0,0.0,0.0,0.0,0.0,0.0,0.0,0.0,0.0,0.0,0.0,0.0
1494450139748682388,212,1494450139803223518,gyro_link,0.0,0.0,-0.0132641133436,0.999912027779,1.79769313486e+308,0.0,0.0,0.0,1.79769313486e+308,0.0,0.0,0.0,0.05,0.0,0.0,0.00366519142919,1.79769313486e+308,0.0,0.0,0.0,1.79769313486e+308,0.0,0.0,0.0,0.05,0.0,0.0,0.0,0.0,0.0,0.0,0.0,0.0,0.0,0.0,0.0,0.0
1494450139772377828,213,1494450139823303589,gyro_link,0.0,0.0,-0.0132641133436,0.999912027779,1.79769313486e+308,0.0,0.0,0.0,1.79769313486e+308,0.0,0.0,0.0,0.05,0.0,0.0,0.00715584993318,1.79769313486e+308,0.0,0.0,0.0,1.79769313486e+308,0.0,0.0,0.0,0.05,0.0,0.0,0.0,0.0,0.0,0.0,0.0,0.0,0.0,0.0,0.0,0.0
1494450139787958649,214,1494450139843253410,gyro_link,0.0,0.0,-0.0131768545077,0.999913181484,1.79769313486e+308,0.0,0.0,0.0,1.79769313486e+308,0.0,0.0,0.0,0.05,0.0,0.0,0.00261799387799,1.79769313486e+308,0.0,0.0,0.0,1.79769313486e+308,0.0,0.0,0.0,0.05,0.0,0.0,0.0,0.0,0.0,0.0,0.0,0.0,0.0,0.0,0.0,0.0
1494450139814031435,215,1494450139868369977,gyro_link,0.0,0.0,-0.0131768545077,0.999913181484,1.79769313486e+308,0.0,0.0,0.0,1.79769313486e+308,0.0,0.0,0.0,0.05,0.0,0.0,0.000872664625997,1.79769313486e+308,0.0,0.0,0.0,1.79769313486e+308,0.0,0.0,0.0,0.05,0.0,0.0,0.0,0.0,0.0,0.0,0.0,0.0,0.0,0.0,0.0,0.0
1494450139828695464,216,1494450139883277843,gyro_link,0.0,0.0,-0.0131768545077,0.999913181484,1.79769313486e+308,0.0,0.0,0.0,1.79769313486e+308,0.0,0.0,0.0,0.05,0.0,0.0,-0.00750491578358,1.79769313486e+308,0.0,0.0,0.0,1.79769313486e+308,0.0,0.0,0.0,0.05,0.0,0.0,0.0,0.0,0.0,0.0,0.0,0.0,0.0,0.0,0.0,0.0
1494450139848931170,217,1494450139903442621,gyro_link,0.0,0.0,-0.0134386307119,0.999909697525,1.79769313486e+308,0.0,0.0,0.0,1.79769313486e+308,0.0,0.0,0.0,0.05,0.0,0.0,-0.0284488668075,1.79769313486e+308,0.0,0.0,0.0,1.79769313486e+308,0.0,0.0,0.0,0.05,0.0,0.0,0.0,0.0,0.0,0.0,0.0,0.0,0.0,0.0,0.0,0.0
1494450139871179825,218,1494450139923903313,gyro_link,0.0,0.0,-0.0137876642149,0.99990494564,1.79769313486e+308,0.0,0.0,0.0,1.79769313486e+308,0.0,0.0,0.0,0.05,0.0,0.0,-0.0408407044967,1.79769313486e+308,0.0,0.0,0.0,1.79769313486e+308,0.0,0.0,0.0,0.05,0.0,0.0,0.0,0.0,0.0,0.0,0.0,0.0,0.0,0.0,0.0,0.0
1494450139891954267,219,1494450139944437046,gyro_link,0.0,0.0,-0.0140494382421,0.999901301772,1.79769313486e+308,0.0,0.0,0.0,1.79769313486e+308,0.0,0.0,0.0,0.05,0.0,0.0,-0.0239110107523,1.79769313486e+308,0.0,0.0,0.0,1.79769313486e+308,0.0,0.0,0.0,0.05,0.0,0.0,0.0,0.0,0.0,0.0,0.0,0.0,0.0,0.0,0.0,0.0
1494450139913937092,220,1494450139963228586,gyro_link,0.0,0.0,-0.014136696038,0.99990007192,1.79769313486e+308,0.0,0.0,0.0,1.79769313486e+308,0.0,0.0,0.0,0.05,0.0,0.0,-0.00436332312999,1.79769313486e+308,0.0,0.0,0.0,1.79769313486e+308,0.0,0.0,0.0,0.05,0.0,0.0,0.0,0.0,0.0,0.0,0.0,0.0,0.0,0.0,0.0,0.0
1494450139929125901,221,1494450139983293489,gyro_link,0.0,0.0,-0.0140494382421,0.999901301772,1.79769313486e+308,0.0,0.0,0.0,1.79769313486e+308,0.0,0.0,0.0,0.05,0.0,0.0,0.0174532925199,1.79769313486e+308,0.0,0.0,0.0,1.79769313486e+308,0.0,0.0,0.0,0.05,0.0,0.0,0.0,0.0,0.0,0.0,0.0,0.0,0.0,0.0,0.0,0.0
1494450139949097295,222,1494450140003321393,gyro_link,0.0,0.0,-0.0138749223299,0.999903738632,1.79769313486e+308,0.0,0.0,0.0,1.79769313486e+308,0.0,0.0,0.0,0.05,0.0,0.0,0.0171042266695,1.79769313486e+308,0.0,0.0,0.0,1.79769313486e+308,0.0,0.0,0.0,0.05,0.0,0.0,0.0,0.0,0.0,0.0,0.0,0.0,0.0,0.0,0.0,0.0
1494450139969523295,223,1494450140023306465,gyro_link,0.0,0.0,-0.0139621803391,0.999902524009,1.79769313486e+308,0.0,0.0,0.0,1.79769313486e+308,0.0,0.0,0.0,0.05,0.0,0.0,-0.0165806278939,1.79769313486e+308,0.0,0.0,0.0,1.79769313486e+308,0.0,0.0,0.0,0.05,0.0,0.0,0.0,0.0,0.0,0.0,0.0,0.0,0.0,0.0,0.0,0.0
1494450139992565362,224,1494450140044581066,gyro_link,0.0,0.0,-0.0147474975581,0.999891249745,1.79769313486e+308,0.0,0.0,0.0,1.79769313486e+308,0.0,0.0,0.0,0.05,0.0,0.0,-0.070860367631,1.79769313486e+308,0.0,0.0,0.0,1.79769313486e+308,0.0,0.0,0.0,0.05,0.0,0.0,0.0,0.0,0.0,0.0,0.0,0.0,0.0,0.0,0.0,0.0
1494450140011195241,225,1494450140064296181,gyro_link,0.0,0.0,-0.0154455496863,0.999880710382,1.79769313486e+308,0.0,0.0,0.0,1.79769313486e+308,0.0,0.0,0.0,0.05,0.0,0.0,-0.0766199541626,1.79769313486e+308,0.0,0.0,0.0,1.79769313486e+308,0.0,0.0,0.0,0.05,0.0,0.0,0.0,0.0,0.0,0.0,0.0,0.0,0.0,0.0,0.0,0.0
1494450140030375429,226,1494450140084151795,gyro_link,0.0,0.0,-0.0161435942865,0.999869683691,1.79769313486e+308,0.0,0.0,0.0,1.79769313486e+308,0.0,0.0,0.0,0.05,0.0,0.0,-0.0727802298082,1.79769313486e+308,0.0,0.0,0.0,1.79769313486e+308,0.0,0.0,0.0,0.05,0.0,0.0,0.0,0.0,0.0,0.0,0.0,0.0,0.0,0.0,0.0,0.0
1494450140049641285,227,1494450140104105116,gyro_link,0.0,0.0,-0.016754376869,0.999859635577,1.79769313486e+308,0.0,0.0,0.0,1.79769313486e+308,0.0,0.0,0.0,0.05,0.0,0.0,-0.0561996019142,1.79769313486e+308,0.0,0.0,0.0,1.79769313486e+308,0.0,0.0,0.0,0.05,0.0,0.0,0.0,0.0,0.0,0.0,0.0,0.0,0.0,0.0,0.0,0.0
1494450140070861036,228,1494450140124128604,gyro_link,0.0,0.0,-0.0170161389323,0.999855215027,1.79769313486e+308,0.0,0.0,0.0,1.79769313486e+308,0.0,0.0,0.0,0.05,0.0,0.0,-0.01308996939,1.79769313486e+308,0.0,0.0,0.0,1.79769313486e+308,0.0,0.0,0.0,0.05,0.0,0.0,0.0,0.0,0.0,0.0,0.0,0.0,0.0,0.0,0.0,0.0
1494450140091488035,229,1494450140143327890,gyro_link,0.0,0.0,-0.016754376869,0.999859635577,1.79769313486e+308,0.0,0.0,0.0,1.79769313486e+308,0.0,0.0,0.0,0.05,0.0,0.0,0.0354301838155,1.79769313486e+308,0.0,0.0,0.0,1.79769313486e+308,0.0,0.0,0.0,0.05,0.0,0.0,0.0,0.0,0.0,0.0,0.0,0.0,0.0,0.0,0.0,0.0
1494450140122356423,230,1494450140163182713,gyro_link,0.0,0.0,-0.0161435942865,0.999869683691,1.79769313486e+308,0.0,0.0,0.0,1.79769313486e+308,0.0,0.0,0.0,0.05,0.0,0.0,0.0794124809657,1.79769313486e+308,0.0,0.0,0.0,1.79769313486e+308,0.0,0.0,0.0,0.05,0.0,0.0,0.0,0.0,0.0,0.0,0.0,0.0,0.0,0.0,0.0,0.0
1494450140131303861,231,1494450140184398939,gyro_link,0.0,0.0,-0.015358293575,0.999882054454,1.79769313486e+308,0.0,0.0,0.0,1.79769313486e+308,0.0,0.0,0.0,0.05,0.0,0.0,0.0769690200129,1.79769313486e+308,0.0,0.0,0.0,1.79769313486e+308,0.0,0.0,0.0,0.05,0.0,0.0,0.0,0.0,0.0,0.0,0.0,0.0,0.0,0.0,0.0,0.0
1494450140152605409,232,1494450140205026505,gyro_link,0.0,0.0,-0.0148347544741,0.999889958975,1.79769313486e+308,0.0,0.0,0.0,1.79769313486e+308,0.0,0.0,0.0,0.05,0.0,0.0,0.046425758103,1.79769313486e+308,0.0,0.0,0.0,1.79769313486e+308,0.0,0.0,0.0,0.05,0.0,0.0,0.0,0.0,0.0,0.0,0.0,0.0,0.0,0.0,0.0,0.0
1494450140170386295,233,1494450140224109876,gyro_link,0.0,0.0,-0.0146602405297,0.999892532899,1.79769313486e+308,0.0,0.0,0.0,1.79769313486e+308,0.0,0.0,0.0,0.05,0.0,0.0,0.00802851455917,1.79769313486e+308,0.0,0.0,0.0,1.79769313486e+308,0.0,0.0,0.0,0.05,0.0,0.0,0.0,0.0,0.0,0.0,0.0,0.0,0.0,0.0,0.0,0.0
1494450140189527719,234,1494450140244133072,gyro_link,0.0,0.0,-0.0147474975581,0.999891249745,1.79769313486e+308,0.0,0.0,0.0,1.79769313486e+308,0.0,0.0,0.0,0.05,0.0,0.0,-0.01308996939,1.79769313486e+308,0.0,0.0,0.0,1.79769313486e+308,0.0,0.0,0.0,0.05,0.0,0.0,0.0,0.0,0.0,0.0,0.0,0.0,0.0,0.0,0.0,0.0
1494450140209535286,235,1494450140264098601,gyro_link,0.0,0.0,-0.0149220112772,0.999888660591,1.79769313486e+308,0.0,0.0,0.0,1.79769313486e+308,0.0,0.0,0.0,0.05,0.0,0.0,-0.01308996939,1.79769313486e+308,0.0,0.0,0.0,1.79769313486e+308,0.0,0.0,0.0,0.05,0.0,0.0,0.0,0.0,0.0,0.0,0.0,0.0,0.0,0.0,0.0,0.0
1494450140231042205,236,1494450140284384086,gyro_link,0.0,0.0,-0.0150965245419,0.99988604098,1.79769313486e+308,0.0,0.0,0.0,1.79769313486e+308,0.0,0.0,0.0,0.05,0.0,0.0,-0.0186750229963,1.79769313486e+308,0.0,0.0,0.0,1.79769313486e+308,0.0,0.0,0.0,0.05,0.0,0.0,0.0,0.0,0.0,0.0,0.0,0.0,0.0,0.0,0.0,0.0
1494450140250680310,237,1494450140304296866,gyro_link,0.0,0.0,-0.0152710373467,0.99988339091,1.79769313486e+308,0.0,0.0,0.0,1.79769313486e+308,0.0,0.0,0.0,0.05,0.0,0.0,-0.0181514242207,1.79769313486e+308,0.0,0.0,0.0,1.79769313486e+308,0.0,0.0,0.0,0.05,0.0,0.0,0.0,0.0,0.0,0.0,0.0,0.0,0.0,0.0,0.0,0.0
1494450140271687930,238,1494450140324144897,gyro_link,0.0,0.0,-0.015358293575,0.999882054454,1.79769313486e+308,0.0,0.0,0.0,1.79769313486e+308,0.0,0.0,0.0,0.05,0.0,0.0,-0.00663225115758,1.79769313486e+308,0.0,0.0,0.0,1.79769313486e+308,0.0,0.0,0.0,0.05,0.0,0.0,0.0,0.0,0.0,0.0,0.0,0.0,0.0,0.0,0.0,0.0
1494450140290885313,239,1494450140344190468,gyro_link,0.0,0.0,-0.0151837810021,0.999884719752,1.79769313486e+308,0.0,0.0,0.0,1.79769313486e+308,0.0,0.0,0.0,0.05,0.0,0.0,0.0195476876223,1.79769313486e+308,0.0,0.0,0.0,1.79769313486e+308,0.0,0.0,0.0,0.05,0.0,0.0,0.0,0.0,0.0,0.0,0.0,0.0,0.0,0.0,0.0,0.0
1494450140309389542,240,1494450140363978457,gyro_link,0.0,0.0,-0.0149220112772,0.999888660591,1.79769313486e+308,0.0,0.0,0.0,1.79769313486e+308,0.0,0.0,0.0,0.05,0.0,0.0,0.0378736447683,1.79769313486e+308,0.0,0.0,0.0,1.79769313486e+308,0.0,0.0,0.0,0.05,0.0,0.0,0.0,0.0,0.0,0.0,0.0,0.0,0.0,0.0,0.0,0.0
1494450140329268038,241,1494450140384091444,gyro_link,0.0,0.0,-0.0144857261386,0.999895076365,1.79769313486e+308,0.0,0.0,0.0,1.79769313486e+308,0.0,0.0,0.0,0.05,0.0,0.0,0.0380481776935,1.79769313486e+308,0.0,0.0,0.0,1.79769313486e+308,0.0,0.0,0.0,0.05,0.0,0.0,0.0,0.0,0.0,0.0,0.0,0.0,0.0,0.0,0.0,0.0
1494450140351366691,242,1494450140404045224,gyro_link,0.0,0.0,-0.0142239537263,0.999898834453,1.79769313486e+308,0.0,0.0,0.0,1.79769313486e+308,0.0,0.0,0.0,0.05,0.0,0.0,0.0221656815003,1.79769313486e+308,0.0,0.0,0.0,1.79769313486e+308,0.0,0.0,0.0,0.05,0.0,0.0,0.0,0.0,0.0,0.0,0.0,0.0,0.0,0.0,0.0,0.0
1494450140372076591,243,1494450140425257200,gyro_link,0.0,0.0,-0.0142239537263,0.999898834453,1.79769313486e+308,0.0,0.0,0.0,1.79769313486e+308,0.0,0.0,0.0,0.05,0.0,0.0,0.000698131700798,1.79769313486e+308,0.0,0.0,0.0,1.79769313486e+308,0.0,0.0,0.0,0.05,0.0,0.0,0.0,0.0,0.0,0.0,0.0,0.0,0.0,0.0,0.0,0.0
1494450140405100646,244,1494450140444088490,gyro_link,0.0,0.0,-0.0142239537263,0.999898834453,1.79769313486e+308,0.0,0.0,0.0,1.79769313486e+308,0.0,0.0,0.0,0.05,0.0,0.0,0.000872664625997,1.79769313486e+308,0.0,0.0,0.0,1.79769313486e+308,0.0,0.0,0.0,0.05,0.0,0.0,0.0,0.0,0.0,0.0,0.0,0.0,0.0,0.0,0.0,0.0
1494450140427275340,245,1494450140464034437,gyro_link,0.0,0.0,-0.0142239537263,0.999898834453,1.79769313486e+308,0.0,0.0,0.0,1.79769313486e+308,0.0,0.0,0.0,0.05,0.0,0.0,-0.00296705972839,1.79769313486e+308,0.0,0.0,0.0,1.79769313486e+308,0.0,0.0,0.0,0.05,0.0,0.0,0.0,0.0,0.0,0.0,0.0,0.0,0.0,0.0,0.0,0.0
1494450140431298388,246,1494450140484231089,gyro_link,0.0,0.0,-0.0143112113063,0.999897589372,1.79769313486e+308,0.0,0.0,0.0,1.79769313486e+308,0.0,0.0,0.0,0.05,0.0,0.0,-0.0115191730632,1.79769313486e+308,0.0,0.0,0.0,1.79769313486e+308,0.0,0.0,0.0,0.05,0.0,0.0,0.0,0.0,0.0,0.0,0.0,0.0,0.0,0.0,0.0,0.0
1494450140452241681,247,1494450140505264984,gyro_link,0.0,0.0,-0.0143984687773,0.999896336675,1.79769313486e+308,0.0,0.0,0.0,1.79769313486e+308,0.0,0.0,0.0,0.05,0.0,0.0,-0.0108210413624,1.79769313486e+308,0.0,0.0,0.0,1.79769313486e+308,0.0,0.0,0.0,0.05,0.0,0.0,0.0,0.0,0.0,0.0,0.0,0.0,0.0,0.0,0.0,0.0
1494450140472749114,248,1494450140525440720,gyro_link,0.0,0.0,-0.0143984687773,0.999896336675,1.79769313486e+308,0.0,0.0,0.0,1.79769313486e+308,0.0,0.0,0.0,0.05,0.0,0.0,0.00942477796077,1.79769313486e+308,0.0,0.0,0.0,1.79769313486e+308,0.0,0.0,0.0,0.05,0.0,0.0,0.0,0.0,0.0,0.0,0.0,0.0,0.0,0.0,0.0,0.0
1494450140489578335,249,1494450140544089970,gyro_link,0.0,0.0,-0.0143112113063,0.999897589372,1.79769313486e+308,0.0,0.0,0.0,1.79769313486e+308,0.0,0.0,0.0,0.05,0.0,0.0,0.00733038285838,1.79769313486e+308,0.0,0.0,0.0,1.79769313486e+308,0.0,0.0,0.0,0.05,0.0,0.0,0.0,0.0,0.0,0.0,0.0,0.0,0.0,0.0,0.0,0.0
1494450140509119088,250,1494450140564152291,gyro_link,0.0,0.0,-0.0143112113063,0.999897589372,1.79769313486e+308,0.0,0.0,0.0,1.79769313486e+308,0.0,0.0,0.0,0.05,0.0,0.0,-0.00523598775598,1.79769313486e+308,0.0,0.0,0.0,1.79769313486e+308,0.0,0.0,0.0,0.05,0.0,0.0,0.0,0.0,0.0,0.0,0.0,0.0,0.0,0.0,0.0,0.0
1494450140529211562,251,1494450140584059196,gyro_link,0.0,0.0,-0.0143984687773,0.999896336675,1.79769313486e+308,0.0,0.0,0.0,1.79769313486e+308,0.0,0.0,0.0,0.05,0.0,0.0,-0.0174532925199,1.79769313486e+308,0.0,0.0,0.0,1.79769313486e+308,0.0,0.0,0.0,0.05,0.0,0.0,0.0,0.0,0.0,0.0,0.0,0.0,0.0,0.0,0.0,0.0
1494450140549569719,252,1494450140604166391,gyro_link,0.0,0.0,-0.0145729833896,0.999893808439,1.79769313486e+308,0.0,0.0,0.0,1.79769313486e+308,0.0,0.0,0.0,0.05,0.0,0.0,-0.0164060949687,1.79769313486e+308,0.0,0.0,0.0,1.79769313486e+308,0.0,0.0,0.0,0.05,0.0,0.0,0.0,0.0,0.0,0.0,0.0,0.0,0.0,0.0,0.0,0.0
1494450140575131941,253,1494450140626423108,gyro_link,0.0,0.0,-0.0147474975581,0.999891249745,1.79769313486e+308,0.0,0.0,0.0,1.79769313486e+308,0.0,0.0,0.0,0.05,0.0,0.0,-0.00575958653158,1.79769313486e+308,0.0,0.0,0.0,1.79769313486e+308,0.0,0.0,0.0,0.05,0.0,0.0,0.0,0.0,0.0,0.0,0.0,0.0,0.0,0.0,0.0,0.0
1494450140591929897,254,1494450140644254449,gyro_link,0.0,0.0,-0.0147474975581,0.999891249745,1.79769313486e+308,0.0,0.0,0.0,1.79769313486e+308,0.0,0.0,0.0,0.05,0.0,0.0,0.00157079632679,1.79769313486e+308,0.0,0.0,0.0,1.79769313486e+308,0.0,0.0,0.0,0.05,0.0,0.0,0.0,0.0,0.0,0.0,0.0,0.0,0.0,0.0,0.0,0.0
1494450140611263508,255,1494450140664583933,gyro_link,0.0,0.0,-0.0146602405297,0.999892532899,1.79769313486e+308,0.0,0.0,0.0,1.79769313486e+308,0.0,0.0,0.0,0.05,0.0,0.0,0.00279252680319,1.79769313486e+308,0.0,0.0,0.0,1.79769313486e+308,0.0,0.0,0.0,0.05,0.0,0.0,0.0,0.0,0.0,0.0,0.0,0.0,0.0,0.0,0.0,0.0
1494450140631549448,256,1494450140686193198,gyro_link,0.0,0.0,-0.0146602405297,0.999892532899,1.79769313486e+308,0.0,0.0,0.0,1.79769313486e+308,0.0,0.0,0.0,0.05,0.0,0.0,0.0101229096616,1.79769313486e+308,0.0,0.0,0.0,1.79769313486e+308,0.0,0.0,0.0,0.05,0.0,0.0,0.0,0.0,0.0,0.0,0.0,0.0,0.0,0.0,0.0,0.0
1494450140649940638,257,1494450140704371952,gyro_link,0.0,0.0,-0.0145729833896,0.999893808439,1.79769313486e+308,0.0,0.0,0.0,1.79769313486e+308,0.0,0.0,0.0,0.05,0.0,0.0,-0.000698131700798,1.79769313486e+308,0.0,0.0,0.0,1.79769313486e+308,0.0,0.0,0.0,0.05,0.0,0.0,0.0,0.0,0.0,0.0,0.0,0.0,0.0,0.0,0.0,0.0
1494450140670732373,258,1494450140724212775,gyro_link,0.0,0.0,-0.0147474975581,0.999891249745,1.79769313486e+308,0.0,0.0,0.0,1.79769313486e+308,0.0,0.0,0.0,0.05,0.0,0.0,-0.0181514242207,1.79769313486e+308,0.0,0.0,0.0,1.79769313486e+308,0.0,0.0,0.0,0.05,0.0,0.0,0.0,0.0,0.0,0.0,0.0,0.0,0.0,0.0,0.0,0.0
1494450140693529915,259,1494450140744030014,gyro_link,0.0,0.0,-0.0150092679667,0.999887354593,1.79769313486e+308,0.0,0.0,0.0,1.79769313486e+308,0.0,0.0,0.0,0.05,0.0,0.0,-0.0317649923863,1.79769313486e+308,0.0,0.0,0.0,1.79769313486e+308,0.0,0.0,0.0,0.05,0.0,0.0,0.0,0.0,0.0,0.0,0.0,0.0,0.0,0.0,0.0,0.0
1494450140708860455,260,1494450140764040585,gyro_link,0.0,0.0,-0.0152710373467,0.99988339091,1.79769313486e+308,0.0,0.0,0.0,1.79769313486e+308,0.0,0.0,0.0,0.05,0.0,0.0,-0.0279252680319,1.79769313486e+308,0.0,0.0,0.0,1.79769313486e+308,0.0,0.0,0.0,0.05,0.0,0.0,0.0,0.0,0.0,0.0,0.0,0.0,0.0,0.0,0.0,0.0
1494450140729428058,261,1494450140783954698,gyro_link,0.0,0.0,-0.0154455496863,0.999880710382,1.79769313486e+308,0.0,0.0,0.0,1.79769313486e+308,0.0,0.0,0.0,0.05,0.0,0.0,-0.0108210413624,1.79769313486e+308,0.0,0.0,0.0,1.79769313486e+308,0.0,0.0,0.0,0.05,0.0,0.0,0.0,0.0,0.0,0.0,0.0,0.0,0.0,0.0,0.0,0.0
1494450140750396321,262,1494450140805169009,gyro_link,0.0,0.0,-0.0154455496863,0.999880710382,1.79769313486e+308,0.0,0.0,0.0,1.79769313486e+308,0.0,0.0,0.0,0.05,0.0,0.0,0.00872664625997,1.79769313486e+308,0.0,0.0,0.0,1.79769313486e+308,0.0,0.0,0.0,0.05,0.0,0.0,0.0,0.0,0.0,0.0,0.0,0.0,0.0,0.0,0.0,0.0
1494450140771602476,263,1494450140825220412,gyro_link,0.0,0.0,-0.0152710373467,0.99988339091,1.79769313486e+308,0.0,0.0,0.0,1.79769313486e+308,0.0,0.0,0.0,0.05,0.0,0.0,0.010471975512,1.79769313486e+308,0.0,0.0,0.0,1.79769313486e+308,0.0,0.0,0.0,0.05,0.0,0.0,0.0,0.0,0.0,0.0,0.0,0.0,0.0,0.0,0.0,0.0
1494450140791858788,264,1494450140845219025,gyro_link,0.0,0.0,-0.0154455496863,0.999880710382,1.79769313486e+308,0.0,0.0,0.0,1.79769313486e+308,0.0,0.0,0.0,0.05,0.0,0.0,-0.0218166156499,1.79769313486e+308,0.0,0.0,0.0,1.79769313486e+308,0.0,0.0,0.0,0.05,0.0,0.0,0.0,0.0,0.0,0.0,0.0,0.0,0.0,0.0,0.0,0.0
1494450140814292964,265,1494450140864969182,gyro_link,0.0,0.0,-0.0159690838608,0.99987248605,1.79769313486e+308,0.0,0.0,0.0,1.79769313486e+308,0.0,0.0,0.0,0.05,0.0,0.0,-0.0657989128002,1.79769313486e+308,0.0,0.0,0.0,1.79769313486e+308,0.0,0.0,0.0,0.05,0.0,0.0,0.0,0.0,0.0,0.0,0.0,0.0,0.0,0.0,0.0,0.0
1494450140835459883,266,1494450140885828620,gyro_link,0.0,0.0,-0.0165798681877,0.999862544538,1.79769313486e+308,0.0,0.0,0.0,1.79769313486e+308,0.0,0.0,0.0,0.05,0.0,0.0,-0.0645771823238,1.79769313486e+308,0.0,0.0,0.0,1.79769313486e+308,0.0,0.0,0.0,0.05,0.0,0.0,0.0,0.0,0.0,0.0,0.0,0.0,0.0,0.0,0.0,0.0
1494450140850326416,267,1494450140904004707,gyro_link,0.0,0.0,-0.0171033926951,0.999853726281,1.79769313486e+308,0.0,0.0,0.0,1.79769313486e+308,0.0,0.0,0.0,0.05,0.0,0.0,-0.0565486677646,1.79769313486e+308,0.0,0.0,0.0,1.79769313486e+308,0.0,0.0,0.0,0.05,0.0,0.0,0.0,0.0,0.0,0.0,0.0,0.0,0.0,0.0,0.0,0.0
1494450140873818902,268,1494450140925627347,gyro_link,0.0,0.0,-0.0176269125136,0.999844633908,1.79769313486e+308,0.0,0.0,0.0,1.79769313486e+308,0.0,0.0,0.0,0.05,0.0,0.0,-0.0535816080362,1.79769313486e+308,0.0,0.0,0.0,1.79769313486e+308,0.0,0.0,0.0,0.05,0.0,0.0,0.0,0.0,0.0,0.0,0.0,0.0,0.0,0.0,0.0,0.0
1494450140891191930,269,1494450140945961623,gyro_link,0.0,0.0,-0.0180631753435,0.999836847539,1.79769313486e+308,0.0,0.0,0.0,1.79769313486e+308,0.0,0.0,0.0,0.05,0.0,0.0,-0.0317649923863,1.79769313486e+308,0.0,0.0,0.0,1.79769313486e+308,0.0,0.0,0.0,0.05,0.0,0.0,0.0,0.0,0.0,0.0,0.0,0.0,0.0,0.0,0.0,0.0
1494450140911226459,270,1494450140964952745,gyro_link,0.0,0.0,-0.01797592305,0.999838420041,1.79769313486e+308,0.0,0.0,0.0,1.79769313486e+308,0.0,0.0,0.0,0.05,0.0,0.0,0.0171042266695,1.79769313486e+308,0.0,0.0,0.0,1.79769313486e+308,0.0,0.0,0.0,0.05,0.0,0.0,0.0,0.0,0.0,0.0,0.0,0.0,0.0,0.0,0.0,0.0
1494450140929686057,271,1494450140985001232,gyro_link,0.0,0.0,-0.0171906463277,0.999852229921,1.79769313486e+308,0.0,0.0,0.0,1.79769313486e+308,0.0,0.0,0.0,0.05,0.0,0.0,0.0705113017806,1.79769313486e+308,0.0,0.0,0.0,1.79769313486e+308,0.0,0.0,0.0,0.05,0.0,0.0,0.0,0.0,0.0,0.0,0.0,0.0,0.0,0.0,0.0,0.0
1494450140978826505,272,1494450141004995345,gyro_link,0.0,0.0,-0.0164926136573,0.999863987598,1.79769313486e+308,0.0,0.0,0.0,1.79769313486e+308,0.0,0.0,0.0,0.05,0.0,0.0,0.0715584993318,1.79769313486e+308,0.0,0.0,0.0,1.79769313486e+308,0.0,0.0,0.0,0.05,0.0,0.0,0.0,0.0,0.0,0.0,0.0,0.0,0.0,0.0,0.0,0.0
1494450140995704040,273,1494450141026323363,gyro_link,0.0,0.0,-0.0159690838608,0.99987248605,1.79769313486e+308,0.0,0.0,0.0,1.79769313486e+308,0.0,0.0,0.0,0.05,0.0,0.0,0.048171087355,1.79769313486e+308,0.0,0.0,0.0,1.79769313486e+308,0.0,0.0,0.0,0.05,0.0,0.0,0.0,0.0,0.0,0.0,0.0,0.0,0.0,0.0,0.0,0.0
1494450140995727847,274,1494450141046707639,gyro_link,0.0,0.0,-0.0157073173118,0.999876632482,1.79769313486e+308,0.0,0.0,0.0,1.79769313486e+308,0.0,0.0,0.0,0.05,0.0,0.0,0.0207694180987,1.79769313486e+308,0.0,0.0,0.0,1.79769313486e+308,0.0,0.0,0.0,0.05,0.0,0.0,0.0,0.0,0.0,0.0,0.0,0.0,0.0,0.0,0.0,0.0
1494450141011440277,275,1494450141065014058,gyro_link,0.0,0.0,-0.0157073173118,0.999876632482,1.79769313486e+308,0.0,0.0,0.0,1.79769313486e+308,0.0,0.0,0.0,0.05,0.0,0.0,-0.00750491578358,1.79769313486e+308,0.0,0.0,0.0,1.79769313486e+308,0.0,0.0,0.0,0.05,0.0,0.0,0.0,0.0,0.0,0.0,0.0,0.0,0.0,0.0,0.0,0.0
1494450141030971639,276,1494450141085181544,gyro_link,0.0,0.0,-0.0158818284652,0.999873875809,1.79769313486e+308,0.0,0.0,0.0,1.79769313486e+308,0.0,0.0,0.0,0.05,0.0,0.0,-0.0232128790515,1.79769313486e+308,0.0,0.0,0.0,1.79769313486e+308,0.0,0.0,0.0,0.05,0.0,0.0,0.0,0.0,0.0,0.0,0.0,0.0,0.0,0.0,0.0,0.0
1494450141051680553,277,1494450141104933909,gyro_link,0.0,0.0,-0.0161435942865,0.999869683691,1.79769313486e+308,0.0,0.0,0.0,1.79769313486e+308,0.0,0.0,0.0,0.05,0.0,0.0,-0.0212930168743,1.79769313486e+308,0.0,0.0,0.0,1.79769313486e+308,0.0,0.0,0.0,0.05,0.0,0.0,0.0,0.0,0.0,0.0,0.0,0.0,0.0,0.0,0.0,0.0
1494450141073540506,278,1494450141126140053,gyro_link,0.0,0.0,-0.0163181042205,0.999866850873,1.79769313486e+308,0.0,0.0,0.0,1.79769313486e+308,0.0,0.0,0.0,0.05,0.0,0.0,-0.0207694180987,1.79769313486e+308,0.0,0.0,0.0,1.79769313486e+308,0.0,0.0,0.0,0.05,0.0,0.0,0.0,0.0,0.0,0.0,0.0,0.0,0.0,0.0,0.0,0.0
1494450141103997548,279,1494450141147657360,gyro_link,0.0,0.0,-0.0164926136573,0.999863987598,1.79769313486e+308,0.0,0.0,0.0,1.79769313486e+308,0.0,0.0,0.0,0.05,0.0,0.0,-0.0129154364648,1.79769313486e+308,0.0,0.0,0.0,1.79769313486e+308,0.0,0.0,0.0,0.05,0.0,0.0,0.0,0.0,0.0,0.0,0.0,0.0,0.0,0.0,0.0,0.0
1494450141116908396,280,1494450141166414984,gyro_link,0.0,0.0,-0.0164053590014,0.999865423043,1.79769313486e+308,0.0,0.0,0.0,1.79769313486e+308,0.0,0.0,0.0,0.05,0.0,0.0,0.0181514242207,1.79769313486e+308,0.0,0.0,0.0,1.79769313486e+308,0.0,0.0,0.0,0.05,0.0,0.0,0.0,0.0,0.0,0.0,0.0,0.0,0.0,0.0,0.0,0.0
1494450141137780657,281,1494450141187122382,gyro_link,0.0,0.0,-0.0158818284652,0.999873875809,1.79769313486e+308,0.0,0.0,0.0,1.79769313486e+308,0.0,0.0,0.0,0.05,0.0,0.0,0.0357792496659,1.79769313486e+308,0.0,0.0,0.0,1.79769313486e+308,0.0,0.0,0.0,0.05,0.0,0.0,0.0,0.0,0.0,0.0,0.0,0.0,0.0,0.0,0.0,0.0
1494450141153185585,282,1494450141205574259,gyro_link,0.0,0.0,-0.0156200615554,0.999877999396,1.79769313486e+308,0.0,0.0,0.0,1.79769313486e+308,0.0,0.0,0.0,0.05,0.0,0.0,0.0246091424531,1.79769313486e+308,0.0,0.0,0.0,1.79769313486e+308,0.0,0.0,0.0,0.05,0.0,0.0,0.0,0.0,0.0,0.0,0.0,0.0,0.0,0.0,0.0,0.0
1494450141174182509,283,1494450141226121242,gyro_link,0.0,0.0,-0.01553280568,0.999879358697,1.79769313486e+308,0.0,0.0,0.0,1.79769313486e+308,0.0,0.0,0.0,0.05,0.0,0.0,0.00733038285838,1.79769313486e+308,0.0,0.0,0.0,1.79769313486e+308,0.0,0.0,0.0,0.05,0.0,0.0,0.0,0.0,0.0,0.0,0.0,0.0,0.0,0.0,0.0,0.0
1494450141193820510,284,1494450141246442143,gyro_link,0.0,0.0,-0.0154455496863,0.999880710382,1.79769313486e+308,0.0,0.0,0.0,1.79769313486e+308,0.0,0.0,0.0,0.05,0.0,0.0,0.00837758040957,1.79769313486e+308,0.0,0.0,0.0,1.79769313486e+308,0.0,0.0,0.0,0.05,0.0,0.0,0.0,0.0,0.0,0.0,0.0,0.0,0.0,0.0,0.0,0.0
1494450141214448996,285,1494450141264759313,gyro_link,0.0,0.0,-0.015358293575,0.999882054454,1.79769313486e+308,0.0,0.0,0.0,1.79769313486e+308,0.0,0.0,0.0,0.05,0.0,0.0,0.00279252680319,1.79769313486e+308,0.0,0.0,0.0,1.79769313486e+308,0.0,0.0,0.0,0.05,0.0,0.0,0.0,0.0,0.0,0.0,0.0,0.0,0.0,0.0,0.0,0.0
1494450141229890082,286,1494450141284876716,gyro_link,0.0,0.0,-0.0154455496863,0.999880710382,1.79769313486e+308,0.0,0.0,0.0,1.79769313486e+308,0.0,0.0,0.0,0.05,0.0,0.0,-0.00767944870878,1.79769313486e+308,0.0,0.0,0.0,1.79769313486e+308,0.0,0.0,0.0,0.05,0.0,0.0,0.0,0.0,0.0,0.0,0.0,0.0,0.0,0.0,0.0,0.0
1494450141251138435,287,1494450141304981120,gyro_link,0.0,0.0,-0.01553280568,0.999879358697,1.79769313486e+308,0.0,0.0,0.0,1.79769313486e+308,0.0,0.0,0.0,0.05,0.0,0.0,-0.0137881010908,1.79769313486e+308,0.0,0.0,0.0,1.79769313486e+308,0.0,0.0,0.0,0.05,0.0,0.0,0.0,0.0,0.0,0.0,0.0,0.0,0.0,0.0,0.0,0.0
1494450141270701595,288,1494450141325092481,gyro_link,0.0,0.0,-0.0156200615554,0.999877999396,1.79769313486e+308,0.0,0.0,0.0,1.79769313486e+308,0.0,0.0,0.0,0.05,0.0,0.0,-0.00296705972839,1.79769313486e+308,0.0,0.0,0.0,1.79769313486e+308,0.0,0.0,0.0,0.05,0.0,0.0,0.0,0.0,0.0,0.0,0.0,0.0,0.0,0.0,0.0,0.0
1494450141293453409,289,1494450141345681672,gyro_link,0.0,0.0,-0.01553280568,0.999879358697,1.79769313486e+308,0.0,0.0,0.0,1.79769313486e+308,0.0,0.0,0.0,0.05,0.0,0.0,0.0155334303427,1.79769313486e+308,0.0,0.0,0.0,1.79769313486e+308,0.0,0.0,0.0,0.05,0.0,0.0,0.0,0.0,0.0,0.0,0.0,0.0,0.0,0.0,0.0,0.0
1494450141319796570,290,1494450141371390109,gyro_link,0.0,0.0,-0.015358293575,0.999882054454,1.79769313486e+308,0.0,0.0,0.0,1.79769313486e+308,0.0,0.0,0.0,0.05,0.0,0.0,0.00331612557879,1.79769313486e+308,0.0,0.0,0.0,1.79769313486e+308,0.0,0.0,0.0,0.05,0.0,0.0,0.0,0.0,0.0,0.0,0.0,0.0,0.0,0.0,0.0,0.0
1494450141330685802,291,1494450141385129903,gyro_link,0.0,0.0,-0.0154455496863,0.999880710382,1.79769313486e+308,0.0,0.0,0.0,1.79769313486e+308,0.0,0.0,0.0,0.05,0.0,0.0,-0.0101229096616,1.79769313486e+308,0.0,0.0,0.0,1.79769313486e+308,0.0,0.0,0.0,0.05,0.0,0.0,0.0,0.0,0.0,0.0,0.0,0.0,0.0,0.0,0.0,0.0
1494450141350576952,292,1494450141405189973,gyro_link,0.0,0.0,-0.01553280568,0.999879358697,1.79769313486e+308,0.0,0.0,0.0,1.79769313486e+308,0.0,0.0,0.0,0.05,0.0,0.0,-0.00855211333477,1.79769313486e+308,0.0,0.0,0.0,1.79769313486e+308,0.0,0.0,0.0,0.05,0.0,0.0,0.0,0.0,0.0,0.0,0.0,0.0,0.0,0.0,0.0,0.0
1494450141372232631,293,1494450141424965963,gyro_link,0.0,0.0,-0.01553280568,0.999879358697,1.79769313486e+308,0.0,0.0,0.0,1.79769313486e+308,0.0,0.0,0.0,0.05,0.0,0.0,0.000698131700798,1.79769313486e+308,0.0,0.0,0.0,1.79769313486e+308,0.0,0.0,0.0,0.05,0.0,0.0,0.0,0.0,0.0,0.0,0.0,0.0,0.0,0.0,0.0,0.0
1494450141390299239,294,1494450141445334197,gyro_link,0.0,0.0,-0.01553280568,0.999879358697,1.79769313486e+308,0.0,0.0,0.0,1.79769313486e+308,0.0,0.0,0.0,0.05,0.0,0.0,0.00349065850399,1.79769313486e+308,0.0,0.0,0.0,1.79769313486e+308,0.0,0.0,0.0,0.05,0.0,0.0,0.0,0.0,0.0,0.0,0.0,0.0,0.0,0.0,0.0,0.0
1494450141410805906,295,1494450141464862856,gyro_link,0.0,0.0,-0.01553280568,0.999879358697,1.79769313486e+308,0.0,0.0,0.0,1.79769313486e+308,0.0,0.0,0.0,0.05,0.0,0.0,-0.000523598775598,1.79769313486e+308,0.0,0.0,0.0,1.79769313486e+308,0.0,0.0,0.0,0.05,0.0,0.0,0.0,0.0,0.0,0.0,0.0,0.0,0.0,0.0,0.0,0.0
1494450141434583394,296,1494450141487273906,gyro_link,0.0,0.0,-0.0156200615554,0.999877999396,1.79769313486e+308,0.0,0.0,0.0,1.79769313486e+308,0.0,0.0,0.0,0.05,0.0,0.0,-0.0136135681656,1.79769313486e+308,0.0,0.0,0.0,1.79769313486e+308,0.0,0.0,0.0,0.05,0.0,0.0,0.0,0.0,0.0,0.0,0.0,0.0,0.0,0.0,0.0,0.0
1494450141456304092,297,1494450141505946447,gyro_link,0.0,0.0,-0.0156200615554,0.999877999396,1.79769313486e+308,0.0,0.0,0.0,1.79769313486e+308,0.0,0.0,0.0,0.05,0.0,0.0,-0.000523598775598,1.79769313486e+308,0.0,0.0,0.0,1.79769313486e+308,0.0,0.0,0.0,0.05,0.0,0.0,0.0,0.0,0.0,0.0,0.0,0.0,0.0,0.0,0.0,0.0
1494450141473995813,298,1494450141525649187,gyro_link,0.0,0.0,-0.0156200615554,0.999877999396,1.79769313486e+308,0.0,0.0,0.0,1.79769313486e+308,0.0,0.0,0.0,0.05,0.0,0.0,-0.000523598775598,1.79769313486e+308,0.0,0.0,0.0,1.79769313486e+308,0.0,0.0,0.0,0.05,0.0,0.0,0.0,0.0,0.0,0.0,0.0,0.0,0.0,0.0,0.0,0.0
1494450141492464288,299,1494450141545495885,gyro_link,0.0,0.0,-0.0157945729487,0.999875257952,1.79769313486e+308,0.0,0.0,0.0,1.79769313486e+308,0.0,0.0,0.0,0.05,0.0,0.0,-0.0226892802759,1.79769313486e+308,0.0,0.0,0.0,1.79769313486e+308,0.0,0.0,0.0,0.05,0.0,0.0,0.0,0.0,0.0,0.0,0.0,0.0,0.0,0.0,0.0,0.0
1494450141515041489,300,1494450141566988984,gyro_link,0.0,0.0,-0.0163181042205,0.999866850873,1.79769313486e+308,0.0,0.0,0.0,1.79769313486e+308,0.0,0.0,0.0,0.05,0.0,0.0,-0.0333357887131,1.79769313486e+308,0.0,0.0,0.0,1.79769313486e+308,0.0,0.0,0.0,0.05,0.0,0.0,0.0,0.0,0.0,0.0,0.0,0.0,0.0,0.0,0.0,0.0
1494450141533845019,301,1494450141586897431,gyro_link,0.0,0.0,-0.0164053590014,0.999865423043,1.79769313486e+308,0.0,0.0,0.0,1.79769313486e+308,0.0,0.0,0.0,0.05,0.0,0.0,-0.00453785605519,1.79769313486e+308,0.0,0.0,0.0,1.79769313486e+308,0.0,0.0,0.0,0.05,0.0,0.0,0.0,0.0,0.0,0.0,0.0,0.0,0.0,0.0,0.0,0.0
1494450141551019185,302,1494450141606041801,gyro_link,0.0,0.0,-0.0164053590014,0.999865423043,1.79769313486e+308,0.0,0.0,0.0,1.79769313486e+308,0.0,0.0,0.0,0.05,0.0,0.0,0.00296705972839,1.79769313486e+308,0.0,0.0,0.0,1.79769313486e+308,0.0,0.0,0.0,0.05,0.0,0.0,0.0,0.0,0.0,0.0,0.0,0.0,0.0,0.0,0.0,0.0
1494450141570883289,303,1494450141626031539,gyro_link,0.0,0.0,-0.0163181042205,0.999866850873,1.79769313486e+308,0.0,0.0,0.0,1.79769313486e+308,0.0,0.0,0.0,0.05,0.0,0.0,0.0115191730632,1.79769313486e+308,0.0,0.0,0.0,1.79769313486e+308,0.0,0.0,0.0,0.05,0.0,0.0,0.0,0.0,0.0,0.0,0.0,0.0,0.0,0.0,0.0,0.0
1494450141591300621,304,1494450141645973277,gyro_link,0.0,0.0,-0.0162308493153,0.999868271089,1.79769313486e+308,0.0,0.0,0.0,1.79769313486e+308,0.0,0.0,0.0,0.05,0.0,0.0,0.00977384381117,1.79769313486e+308,0.0,0.0,0.0,1.79769313486e+308,0.0,0.0,0.0,0.05,0.0,0.0,0.0,0.0,0.0,0.0,0.0,0.0,0.0,0.0,0.0,0.0
1494450141611993078,305,1494450141665792267,gyro_link,0.0,0.0,-0.0163181042205,0.999866850873,1.79769313486e+308,0.0,0.0,0.0,1.79769313486e+308,0.0,0.0,0.0,0.05,0.0,0.0,-0.0160570291183,1.79769313486e+308,0.0,0.0,0.0,1.79769313486e+308,0.0,0.0,0.0,0.05,0.0,0.0,0.0,0.0,0.0,0.0,0.0,0.0,0.0,0.0,0.0,0.0
1494450141632434995,306,1494450141686299583,gyro_link,0.0,0.0,-0.0168416310186,0.999858169674,1.79769313486e+308,0.0,0.0,0.0,1.79769313486e+308,0.0,0.0,0.0,0.05,0.0,0.0,-0.0626573201466,1.79769313486e+308,0.0,0.0,0.0,1.79769313486e+308,0.0,0.0,0.0,0.05,0.0,0.0,0.0,0.0,0.0,0.0,0.0,0.0,0.0,0.0,0.0,0.0
1494450141657740489,307,1494450141707033898,gyro_link,0.0,0.0,-0.0173651531994,0.999849214359,1.79769313486e+308,0.0,0.0,0.0,1.79769313486e+308,0.0,0.0,0.0,0.05,0.0,0.0,-0.0479965544298,1.79769313486e+308,0.0,0.0,0.0,1.79769313486e+308,0.0,0.0,0.0,0.05,0.0,0.0,0.0,0.0,0.0,0.0,0.0,0.0,0.0,0.0,0.0,0.0
1494450141684951562,308,1494450141734023198,gyro_link,0.0,0.0,-0.0178014180529,0.999841542203,1.79769313486e+308,0.0,0.0,0.0,1.79769313486e+308,0.0,0.0,0.0,0.05,0.0,0.0,-0.0539306738866,1.79769313486e+308,0.0,0.0,0.0,1.79769313486e+308,0.0,0.0,0.0,0.05,0.0,0.0,0.0,0.0,0.0,0.0,0.0,0.0,0.0,0.0,0.0,0.0
1494450141690759031,309,1494450141745933717,gyro_link,0.0,0.0,-0.0188484397154,0.999822352381,1.79769313486e+308,0.0,0.0,0.0,1.79769313486e+308,0.0,0.0,0.0,0.05,0.0,0.0,-0.0657989128002,1.79769313486e+308,0.0,0.0,0.0,1.79769313486e+308,0.0,0.0,0.0,0.05,0.0,0.0,0.0,0.0,0.0,0.0,0.0,0.0,0.0,0.0,0.0,0.0
1494450141713121162,310,1494450141766168077,gyro_link,0.0,0.0,-0.0192846927069,0.999814033022,1.79769313486e+308,0.0,0.0,0.0,1.79769313486e+308,0.0,0.0,0.0,0.05,0.0,0.0,-0.0401425727959,1.79769313486e+308,0.0,0.0,0.0,1.79769313486e+308,0.0,0.0,0.0,0.05,0.0,0.0,0.0,0.0,0.0,0.0,0.0,0.0,0.0,0.0,0.0,0.0
1494450141732535919,311,1494450141787849050,gyro_link,0.0,0.0,-0.0193719428673,0.999812346308,1.79769313486e+308,0.0,0.0,0.0,1.79769313486e+308,0.0,0.0,0.0,0.05,0.0,0.0,0.000872664625997,1.79769313486e+308,0.0,0.0,0.0,1.79769313486e+308,0.0,0.0,0.0,0.05,0.0,0.0,0.0,0.0,0.0,0.0,0.0,0.0,0.0,0.0,0.0,0.0
1494450141752968367,312,1494450141806147761,gyro_link,0.0,0.0,-0.0190229413473,0.999819047479,1.79769313486e+308,0.0,0.0,0.0,1.79769313486e+308,0.0,0.0,0.0,0.05,0.0,0.0,0.0486946861306,1.79769313486e+308,0.0,0.0,0.0,1.79769313486e+308,0.0,0.0,0.0,0.05,0.0,0.0,0.0,0.0,0.0,0.0,0.0,0.0,0.0,0.0,0.0,0.0
1494450141772371519,313,1494450141826061875,gyro_link,0.0,0.0,-0.0184121831354,0.999830481388,1.79769313486e+308,0.0,0.0,0.0,1.79769313486e+308,0.0,0.0,0.0,0.05,0.0,0.0,0.0666715774262,1.79769313486e+308,0.0,0.0,0.0,1.79769313486e+308,0.0,0.0,0.0,0.05,0.0,0.0,0.0,0.0,0.0,0.0,0.0,0.0,0.0,0.0,0.0,0.0
1494450141794099925,314,1494450141847200769,gyro_link,0.0,0.0,-0.0177141653507,0.999843091863,1.79769313486e+308,0.0,0.0,0.0,1.79769313486e+308,0.0,0.0,0.0,0.05,0.0,0.0,0.0698131700798,1.79769313486e+308,0.0,0.0,0.0,1.79769313486e+308,0.0,0.0,0.0,0.05,0.0,0.0,0.0,0.0,0.0,0.0,0.0,0.0,0.0,0.0,0.0,0.0
1494450141815314589,315,1494450141866906218,gyro_link,0.0,0.0,-0.0171906463277,0.999852229921,1.79769313486e+308,0.0,0.0,0.0,1.79769313486e+308,0.0,0.0,0.0,0.05,0.0,0.0,0.0514872129338,1.79769313486e+308,0.0,0.0,0.0,1.79769313486e+308,0.0,0.0,0.0,0.05,0.0,0.0,0.0,0.0,0.0,0.0,0.0,0.0,0.0,0.0,0.0,0.0
1494450141834542372,316,1494450141886999455,gyro_link,0.0,0.0,-0.0169288850399,0.999856696158,1.79769313486e+308,0.0,0.0,0.0,1.79769313486e+308,0.0,0.0,0.0,0.05,0.0,0.0,0.0195476876223,1.79769313486e+308,0.0,0.0,0.0,1.79769313486e+308,0.0,0.0,0.0,0.05,0.0,0.0,0.0,0.0,0.0,0.0,0.0,0.0,0.0,0.0,0.0,0.0
1494450141854022104,317,1494450141906860069,gyro_link,0.0,0.0,-0.0168416310186,0.999858169674,1.79769313486e+308,0.0,0.0,0.0,1.79769313486e+308,0.0,0.0,0.0,0.05,0.0,0.0,-0.00157079632679,1.79769313486e+308,0.0,0.0,0.0,1.79769313486e+308,0.0,0.0,0.0,0.05,0.0,0.0,0.0,0.0,0.0,0.0,0.0,0.0,0.0,0.0,0.0,0.0
1494450141872103113,318,1494450141927037263,gyro_link,0.0,0.0,-0.0171033926951,0.999853726281,1.79769313486e+308,0.0,0.0,0.0,1.79769313486e+308,0.0,0.0,0.0,0.05,0.0,0.0,-0.0322885911619,1.79769313486e+308,0.0,0.0,0.0,1.79769313486e+308,0.0,0.0,0.0,0.05,0.0,0.0,0.0,0.0,0.0,0.0,0.0,0.0,0.0,0.0,0.0,0.0
1494450141892405171,319,1494450141946824294,gyro_link,0.0,0.0,-0.0176269125136,0.999844633908,1.79769313486e+308,0.0,0.0,0.0,1.79769313486e+308,0.0,0.0,0.0,0.05,0.0,0.0,-0.0331612557879,1.79769313486e+308,0.0,0.0,0.0,1.79769313486e+308,0.0,0.0,0.0,0.05,0.0,0.0,0.0,0.0,0.0,0.0,0.0,0.0,0.0,0.0,0.0,0.0
1494450141911003485,320,1494450141965755708,gyro_link,0.0,0.0,-0.0178014180529,0.999841542203,1.79769313486e+308,0.0,0.0,0.0,1.79769313486e+308,0.0,0.0,0.0,0.05,0.0,0.0,-0.0141371669412,1.79769313486e+308,0.0,0.0,0.0,1.79769313486e+308,0.0,0.0,0.0,0.05,0.0,0.0,0.0,0.0,0.0,0.0,0.0,0.0,0.0,0.0,0.0,0.0
1494450141931676163,321,1494450141985748154,gyro_link,0.0,0.0,-0.0178014180529,0.999841542203,1.79769313486e+308,0.0,0.0,0.0,1.79769313486e+308,0.0,0.0,0.0,0.05,0.0,0.0,0.0146607657168,1.79769313486e+308,0.0,0.0,0.0,1.79769313486e+308,0.0,0.0,0.0,0.05,0.0,0.0,0.0,0.0,0.0,0.0,0.0,0.0,0.0,0.0,0.0,0.0
1494450141951051268,322,1494450142005784267,gyro_link,0.0,0.0,-0.0175396595422,0.999846168339,1.79769313486e+308,0.0,0.0,0.0,1.79769313486e+308,0.0,0.0,0.0,0.05,0.0,0.0,0.0254818070791,1.79769313486e+308,0.0,0.0,0.0,1.79769313486e+308,0.0,0.0,0.0,0.05,0.0,0.0,0.0,0.0,0.0,0.0,0.0,0.0,0.0,0.0,0.0,0.0
1494450141976192511,323,1494450142027519739,gyro_link,0.0,0.0,-0.0172778998294,0.999850725947,1.79769313486e+308,0.0,0.0,0.0,1.79769313486e+308,0.0,0.0,0.0,0.05,0.0,0.0,0.0294960643587,1.79769313486e+308,0.0,0.0,0.0,1.79769313486e+308,0.0,0.0,0.0,0.05,0.0,0.0,0.0,0.0,0.0,0.0,0.0,0.0,0.0,0.0,0.0,0.0
1494450141991579060,324,1494450142046521403,gyro_link,0.0,0.0,-0.0170161389323,0.999855215027,1.79769313486e+308,0.0,0.0,0.0,1.79769313486e+308,0.0,0.0,0.0,0.05,0.0,0.0,0.0277507351067,1.79769313486e+308,0.0,0.0,0.0,1.79769313486e+308,0.0,0.0,0.0,0.05,0.0,0.0,0.0,0.0,0.0,0.0,0.0,0.0,0.0,0.0,0.0,0.0
1494450142011150923,325,1494450142065866521,gyro_link,0.0,0.0,-0.016754376869,0.999859635577,1.79769313486e+308,0.0,0.0,0.0,1.79769313486e+308,0.0,0.0,0.0,0.05,0.0,0.0,0.0233874119767,1.79769313486e+308,0.0,0.0,0.0,1.79769313486e+308,0.0,0.0,0.0,0.05,0.0,0.0,0.0,0.0,0.0,0.0,0.0,0.0,0.0,0.0,0.0,0.0
1494450142032621092,326,1494450142085923634,gyro_link,0.0,0.0,-0.0165798681877,0.999862544538,1.79769313486e+308,0.0,0.0,0.0,1.79769313486e+308,0.0,0.0,0.0,0.05,0.0,0.0,0.0164060949687,1.79769313486e+308,0.0,0.0,0.0,1.79769313486e+308,0.0,0.0,0.0,0.05,0.0,0.0,0.0,0.0,0.0,0.0,0.0,0.0,0.0,0.0,0.0,0.0
1494450142050519078,327,1494450142106551449,gyro_link,0.0,0.0,-0.0164926136573,0.999863987598,1.79769313486e+308,0.0,0.0,0.0,1.79769313486e+308,0.0,0.0,0.0,0.05,0.0,0.0,0.00715584993318,1.79769313486e+308,0.0,0.0,0.0,1.79769313486e+308,0.0,0.0,0.0,0.05,0.0,0.0,0.0,0.0,0.0,0.0,0.0,0.0,0.0,0.0,0.0,0.0
1494450142077178491,328,1494450142127909966,gyro_link,0.0,0.0,-0.0164053590014,0.999865423043,1.79769313486e+308,0.0,0.0,0.0,1.79769313486e+308,0.0,0.0,0.0,0.05,0.0,0.0,0.00418879020479,1.79769313486e+308,0.0,0.0,0.0,1.79769313486e+308,0.0,0.0,0.0,0.05,0.0,0.0,0.0,0.0,0.0,0.0,0.0,0.0,0.0,0.0,0.0,0.0
1494450142098726276,329,1494450142147438709,gyro_link,0.0,0.0,-0.0164053590014,0.999865423043,1.79769313486e+308,0.0,0.0,0.0,1.79769313486e+308,0.0,0.0,0.0,0.05,0.0,0.0,-0.000523598775598,1.79769313486e+308,0.0,0.0,0.0,1.79769313486e+308,0.0,0.0,0.0,0.05,0.0,0.0,0.0,0.0,0.0,0.0,0.0,0.0,0.0,0.0,0.0,0.0
1494450142113165424,330,1494450142166545913,gyro_link,0.0,0.0,-0.0164053590014,0.999865423043,1.79769313486e+308,0.0,0.0,0.0,1.79769313486e+308,0.0,0.0,0.0,0.05,0.0,0.0,-0.00209439510239,1.79769313486e+308,0.0,0.0,0.0,1.79769313486e+308,0.0,0.0,0.0,0.05,0.0,0.0,0.0,0.0,0.0,0.0,0.0,0.0,0.0,0.0,0.0,0.0
1494450142136437074,331,1494450142186609900,gyro_link,0.0,0.0,-0.0164926136573,0.999863987598,1.79769313486e+308,0.0,0.0,0.0,1.79769313486e+308,0.0,0.0,0.0,0.05,0.0,0.0,-0.00453785605519,1.79769313486e+308,0.0,0.0,0.0,1.79769313486e+308,0.0,0.0,0.0,0.05,0.0,0.0,0.0,0.0,0.0,0.0,0.0,0.0,0.0,0.0,0.0,0.0
1494450142152521728,332,1494450142206637262,gyro_link,0.0,0.0,-0.0164926136573,0.999863987598,1.79769313486e+308,0.0,0.0,0.0,1.79769313486e+308,0.0,0.0,0.0,0.05,0.0,0.0,-0.00593411945678,1.79769313486e+308,0.0,0.0,0.0,1.79769313486e+308,0.0,0.0,0.0,0.05,0.0,0.0,0.0,0.0,0.0,0.0,0.0,0.0,0.0,0.0,0.0,0.0
1494450142172178692,333,1494450142226075422,gyro_link,0.0,0.0,-0.0164926136573,0.999863987598,1.79769313486e+308,0.0,0.0,0.0,1.79769313486e+308,0.0,0.0,0.0,0.05,0.0,0.0,0.00575958653158,1.79769313486e+308,0.0,0.0,0.0,1.79769313486e+308,0.0,0.0,0.0,0.05,0.0,0.0,0.0,0.0,0.0,0.0,0.0,0.0,0.0,0.0,0.0,0.0
1494450142191510844,334,1494450142246018077,gyro_link,0.0,0.0,-0.0164053590014,0.999865423043,1.79769313486e+308,0.0,0.0,0.0,1.79769313486e+308,0.0,0.0,0.0,0.05,0.0,0.0,0.0143116998664,1.79769313486e+308,0.0,0.0,0.0,1.79769313486e+308,0.0,0.0,0.0,0.05,0.0,0.0,0.0,0.0,0.0,0.0,0.0,0.0,0.0,0.0,0.0,0.0
1494450142210569359,335,1494450142265831108,gyro_link,0.0,0.0,-0.0162308493153,0.999868271089,1.79769313486e+308,0.0,0.0,0.0,1.79769313486e+308,0.0,0.0,0.0,0.05,0.0,0.0,0.0204203522483,1.79769313486e+308,0.0,0.0,0.0,1.79769313486e+308,0.0,0.0,0.0,0.05,0.0,0.0,0.0,0.0,0.0,0.0,0.0,0.0,0.0,0.0,0.0,0.0
1494450142231554066,336,1494450142285791305,gyro_link,0.0,0.0,-0.0160563391348,0.999871088678,1.79769313486e+308,0.0,0.0,0.0,1.79769313486e+308,0.0,0.0,0.0,0.05,0.0,0.0,0.0127409035396,1.79769313486e+308,0.0,0.0,0.0,1.79769313486e+308,0.0,0.0,0.0,0.05,0.0,0.0,0.0,0.0,0.0,0.0,0.0,0.0,0.0,0.0,0.0,0.0
1494450142255737561,337,1494450142308577559,gyro_link,0.0,0.0,-0.0158818284652,0.999873875809,1.79769313486e+308,0.0,0.0,0.0,1.79769313486e+308,0.0,0.0,0.0,0.05,0.0,0.0,0.00925024503557,1.79769313486e+308,0.0,0.0,0.0,1.79769313486e+308,0.0,0.0,0.0,0.05,0.0,0.0,0.0,0.0,0.0,0.0,0.0,0.0,0.0,0.0,0.0,0.0
1494450142275737168,338,1494450142327317433,gyro_link,0.0,0.0,-0.0157945729487,0.999875257952,1.79769313486e+308,0.0,0.0,0.0,1.79769313486e+308,0.0,0.0,0.0,0.05,0.0,0.0,0.0116937059884,1.79769313486e+308,0.0,0.0,0.0,1.79769313486e+308,0.0,0.0,0.0,0.05,0.0,0.0,0.0,0.0,0.0,0.0,0.0,0.0,0.0,0.0,0.0,0.0
1494450142292496179,339,1494450142347826417,gyro_link,0.0,0.0,-0.0157073173118,0.999876632482,1.79769313486e+308,0.0,0.0,0.0,1.79769313486e+308,0.0,0.0,0.0,0.05,0.0,0.0,0.00593411945678,1.79769313486e+308,0.0,0.0,0.0,1.79769313486e+308,0.0,0.0,0.0,0.05,0.0,0.0,0.0,0.0,0.0,0.0,0.0,0.0,0.0,0.0,0.0,0.0
1494450142311498018,340,1494450142366648748,gyro_link,0.0,0.0,-0.0157073173118,0.999876632482,1.79769313486e+308,0.0,0.0,0.0,1.79769313486e+308,0.0,0.0,0.0,0.05,0.0,0.0,0.000698131700798,1.79769313486e+308,0.0,0.0,0.0,1.79769313486e+308,0.0,0.0,0.0,0.05,0.0,0.0,0.0,0.0,0.0,0.0,0.0,0.0,0.0,0.0,0.0,0.0
1494450142332379244,341,1494450142386563945,gyro_link,0.0,0.0,-0.0157073173118,0.999876632482,1.79769313486e+308,0.0,0.0,0.0,1.79769313486e+308,0.0,0.0,0.0,0.05,0.0,0.0,-0.00261799387799,1.79769313486e+308,0.0,0.0,0.0,1.79769313486e+308,0.0,0.0,0.0,0.05,0.0,0.0,0.0,0.0,0.0,0.0,0.0,0.0,0.0,0.0,0.0,0.0
1494450142352084135,342,1494450142406748848,gyro_link,0.0,0.0,-0.0157945729487,0.999875257952,1.79769313486e+308,0.0,0.0,0.0,1.79769313486e+308,0.0,0.0,0.0,0.05,0.0,0.0,-0.00349065850399,1.79769313486e+308,0.0,0.0,0.0,1.79769313486e+308,0.0,0.0,0.0,0.05,0.0,0.0,0.0,0.0,0.0,0.0,0.0,0.0,0.0,0.0,0.0,0.0
1494450142371723082,343,1494450142426648378,gyro_link,0.0,0.0,-0.0157945729487,0.999875257952,1.79769313486e+308,0.0,0.0,0.0,1.79769313486e+308,0.0,0.0,0.0,0.05,0.0,0.0,0.000872664625997,1.79769313486e+308,0.0,0.0,0.0,1.79769313486e+308,0.0,0.0,0.0,0.05,0.0,0.0,0.0,0.0,0.0,0.0,0.0,0.0,0.0,0.0,0.0,0.0
1494450142396627505,344,1494450142448921846,gyro_link,0.0,0.0,-0.0157945729487,0.999875257952,1.79769313486e+308,0.0,0.0,0.0,1.79769313486e+308,0.0,0.0,0.0,0.05,0.0,0.0,-0.00331612557879,1.79769313486e+308,0.0,0.0,0.0,1.79769313486e+308,0.0,0.0,0.0,0.05,0.0,0.0,0.0,0.0,0.0,0.0,0.0,0.0,0.0,0.0,0.0,0.0
1494450142418923353,345,1494450142468412963,gyro_link,0.0,0.0,-0.0158818284652,0.999873875809,1.79769313486e+308,0.0,0.0,0.0,1.79769313486e+308,0.0,0.0,0.0,0.05,0.0,0.0,-0.0144862327916,1.79769313486e+308,0.0,0.0,0.0,1.79769313486e+308,0.0,0.0,0.0,0.05,0.0,0.0,0.0,0.0,0.0,0.0,0.0,0.0,0.0,0.0,0.0,0.0
1494450142434686871,346,1494450142487716082,gyro_link,0.0,0.0,-0.0161435942865,0.999869683691,1.79769313486e+308,0.0,0.0,0.0,1.79769313486e+308,0.0,0.0,0.0,0.05,0.0,0.0,-0.0246091424531,1.79769313486e+308,0.0,0.0,0.0,1.79769313486e+308,0.0,0.0,0.0,0.05,0.0,0.0,0.0,0.0,0.0,0.0,0.0,0.0,0.0,0.0,0.0,0.0
1494450142459229443,347,1494450142507872235,gyro_link,0.0,0.0,-0.0165798681877,0.999862544538,1.79769313486e+308,0.0,0.0,0.0,1.79769313486e+308,0.0,0.0,0.0,0.05,0.0,0.0,-0.0286233997327,1.79769313486e+308,0.0,0.0,0.0,1.79769313486e+308,0.0,0.0,0.0,0.05,0.0,0.0,0.0,0.0,0.0,0.0,0.0,0.0,0.0,0.0,0.0,0.0
1494450142472128248,348,1494450142526808774,gyro_link,0.0,0.0,-0.016754376869,0.999859635577,1.79769313486e+308,0.0,0.0,0.0,1.79769313486e+308,0.0,0.0,0.0,0.05,0.0,0.0,-0.014835298642,1.79769313486e+308,0.0,0.0,0.0,1.79769313486e+308,0.0,0.0,0.0,0.05,0.0,0.0,0.0,0.0,0.0,0.0,0.0,0.0,0.0,0.0,0.0,0.0
1494450142491274544,349,1494450142546886678,gyro_link,0.0,0.0,-0.0168416310186,0.999858169674,1.79769313486e+308,0.0,0.0,0.0,1.79769313486e+308,0.0,0.0,0.0,0.05,0.0,0.0,-0.014835298642,1.79769313486e+308,0.0,0.0,0.0,1.79769313486e+308,0.0,0.0,0.0,0.05,0.0,0.0,0.0,0.0,0.0,0.0,0.0,0.0,0.0,0.0,0.0,0.0
1494450142511894264,350,1494450142566720168,gyro_link,0.0,0.0,-0.0169288850399,0.999856696158,1.79769313486e+308,0.0,0.0,0.0,1.79769313486e+308,0.0,0.0,0.0,0.05,0.0,0.0,-0.00209439510239,1.79769313486e+308,0.0,0.0,0.0,1.79769313486e+308,0.0,0.0,0.0,0.05,0.0,0.0,0.0,0.0,0.0,0.0,0.0,0.0,0.0,0.0,0.0,0.0
1494450142538184540,351,1494450142589229341,gyro_link,0.0,0.0,-0.016754376869,0.999859635577,1.79769313486e+308,0.0,0.0,0.0,1.79769313486e+308,0.0,0.0,0.0,0.05,0.0,0.0,0.0195476876223,1.79769313486e+308,0.0,0.0,0.0,1.79769313486e+308,0.0,0.0,0.0,0.05,0.0,0.0,0.0,0.0,0.0,0.0,0.0,0.0,0.0,0.0,0.0,0.0
1494450142555144568,352,1494450142607425762,gyro_link,0.0,0.0,-0.0165798681877,0.999862544538,1.79769313486e+308,0.0,0.0,0.0,1.79769313486e+308,0.0,0.0,0.0,0.05,0.0,0.0,0.0188495559215,1.79769313486e+308,0.0,0.0,0.0,1.79769313486e+308,0.0,0.0,0.0,0.05,0.0,0.0,0.0,0.0,0.0,0.0,0.0,0.0,0.0,0.0,0.0,0.0
1494450142574550137,353,1494450142627207418,gyro_link,0.0,0.0,-0.0164926136573,0.999863987598,1.79769313486e+308,0.0,0.0,0.0,1.79769313486e+308,0.0,0.0,0.0,0.05,0.0,0.0,0.00785398163397,1.79769313486e+308,0.0,0.0,0.0,1.79769313486e+308,0.0,0.0,0.0,0.05,0.0,0.0,0.0,0.0,0.0,0.0,0.0,0.0,0.0,0.0,0.0,0.0
1494450142594067865,354,1494450142647439654,gyro_link,0.0,0.0,-0.0164053590014,0.999865423043,1.79769313486e+308,0.0,0.0,0.0,1.79769313486e+308,0.0,0.0,0.0,0.05,0.0,0.0,0.00261799387799,1.79769313486e+308,0.0,0.0,0.0,1.79769313486e+308,0.0,0.0,0.0,0.05,0.0,0.0,0.0,0.0,0.0,0.0,0.0,0.0,0.0,0.0,0.0,0.0
1494450142615782725,355,1494450142667326393,gyro_link,0.0,0.0,-0.0166671225918,0.999861093865,1.79769313486e+308,0.0,0.0,0.0,1.79769313486e+308,0.0,0.0,0.0,0.05,0.0,0.0,-0.0406661715715,1.79769313486e+308,0.0,0.0,0.0,1.79769313486e+308,0.0,0.0,0.0,0.05,0.0,0.0,0.0,0.0,0.0,0.0,0.0,0.0,0.0,0.0,0.0,0.0
1494450142636930557,356,1494450142688927533,gyro_link,0.0,0.0,-0.0178014180529,0.999841542203,1.79769313486e+308,0.0,0.0,0.0,1.79769313486e+308,0.0,0.0,0.0,0.05,0.0,0.0,-0.076096355387,1.79769313486e+308,0.0,0.0,0.0,1.79769313486e+308,0.0,0.0,0.0,0.05,0.0,0.0,0.0,0.0,0.0,0.0,0.0,0.0,0.0,0.0,0.0,0.0
1494450142651681354,357,1494450142706494668,gyro_link,0.0,0.0,-0.0181504274995,0.999835267422,1.79769313486e+308,0.0,0.0,0.0,1.79769313486e+308,0.0,0.0,0.0,0.05,0.0,0.0,-0.0296705972839,1.79769313486e+308,0.0,0.0,0.0,1.79769313486e+308,0.0,0.0,0.0,0.05,0.0,0.0,0.0,0.0,0.0,0.0,0.0,0.0,0.0,0.0,0.0,0.0
1494450142672250649,358,1494450142726426364,gyro_link,0.0,0.0,-0.0181504274995,0.999835267422,1.79769313486e+308,0.0,0.0,0.0,1.79769313486e+308,0.0,0.0,0.0,0.05,0.0,0.0,0.00785398163397,1.79769313486e+308,0.0,0.0,0.0,1.79769313486e+308,0.0,0.0,0.0,0.05,0.0,0.0,0.0,0.0,0.0,0.0,0.0,0.0,0.0,0.0,0.0,0.0
1494450142691745793,359,1494450142746595059,gyro_link,0.0,0.0,-0.0178886706196,0.999839984929,1.79769313486e+308,0.0,0.0,0.0,1.79769313486e+308,0.0,0.0,0.0,0.05,0.0,0.0,0.0347320521147,1.79769313486e+308,0.0,0.0,0.0,1.79769313486e+308,0.0,0.0,0.0,0.05,0.0,0.0,0.0,0.0,0.0,0.0,0.0,0.0,0.0,0.0,0.0,0.0
1494450142711871470,360,1494450142766472256,gyro_link,0.0,0.0,-0.0173651531994,0.999849214359,1.79769313486e+308,0.0,0.0,0.0,1.79769313486e+308,0.0,0.0,0.0,0.05,0.0,0.0,0.0617846555206,1.79769313486e+308,0.0,0.0,0.0,1.79769313486e+308,0.0,0.0,0.0,0.05,0.0,0.0,0.0,0.0,0.0,0.0,0.0,0.0,0.0,0.0,0.0,0.0
1494450142732195609,361,1494450142786543660,gyro_link,0.0,0.0,-0.016754376869,0.999859635577,1.79769313486e+308,0.0,0.0,0.0,1.79769313486e+308,0.0,0.0,0.0,0.05,0.0,0.0,0.0689405054538,1.79769313486e+308,0.0,0.0,0.0,1.79769313486e+308,0.0,0.0,0.0,0.05,0.0,0.0,0.0,0.0,0.0,0.0,0.0,0.0,0.0,0.0,0.0,0.0
1494450142752827257,362,1494450142807541431,gyro_link,0.0,0.0,-0.0163181042205,0.999866850873,1.79769313486e+308,0.0,0.0,0.0,1.79769313486e+308,0.0,0.0,0.0,0.05,0.0,0.0,0.0329867228627,1.79769313486e+308,0.0,0.0,0.0,1.79769313486e+308,0.0,0.0,0.0,0.05,0.0,0.0,0.0,0.0,0.0,0.0,0.0,0.0,0.0,0.0,0.0,0.0
1494450142773698620,363,1494450142826515178,gyro_link,0.0,0.0,-0.0164926136573,0.999863987598,1.79769313486e+308,0.0,0.0,0.0,1.79769313486e+308,0.0,0.0,0.0,0.05,0.0,0.0,-0.0359537825911,1.79769313486e+308,0.0,0.0,0.0,1.79769313486e+308,0.0,0.0,0.0,0.05,0.0,0.0,0.0,0.0,0.0,0.0,0.0,0.0,0.0,0.0,0.0,0.0
1494450142791916572,364,1494450142846675706,gyro_link,0.0,0.0,-0.0171906463277,0.999852229921,1.79769313486e+308,0.0,0.0,0.0,1.79769313486e+308,0.0,0.0,0.0,0.05,0.0,0.0,-0.0809832772925,1.79769313486e+308,0.0,0.0,0.0,1.79769313486e+308,0.0,0.0,0.0,0.05,0.0,0.0,0.0,0.0,0.0,0.0,0.0,0.0,0.0,0.0,0.0,0.0
1494450142815766886,365,1494450142868610301,gyro_link,0.0,0.0,-0.01797592305,0.999838420041,1.79769313486e+308,0.0,0.0,0.0,1.79769313486e+308,0.0,0.0,0.0,0.05,0.0,0.0,-0.0804596785169,1.79769313486e+308,0.0,0.0,0.0,1.79769313486e+308,0.0,0.0,0.0,0.05,0.0,0.0,0.0,0.0,0.0,0.0,0.0,0.0,0.0,0.0,0.0,0.0
1494450142833032617,366,1494450142887870879,gyro_link,0.0,0.0,-0.0189356906034,0.999820703737,1.79769313486e+308,0.0,0.0,0.0,1.79769313486e+308,0.0,0.0,0.0,0.05,0.0,0.0,-0.0684169066782,1.79769313486e+308,0.0,0.0,0.0,1.79769313486e+308,0.0,0.0,0.0,0.05,0.0,0.0,0.0,0.0,0.0,0.0,0.0,0.0,0.0,0.0,0.0,0.0
1494450142856277117,367,1494450142908581527,gyro_link,0.0,0.0,-0.0196336924606,0.999807240482,1.79769313486e+308,0.0,0.0,0.0,1.79769313486e+308,0.0,0.0,0.0,0.05,0.0,0.0,-0.061261056745,1.79769313486e+308,0.0,0.0,0.0,1.79769313486e+308,0.0,0.0,0.0,0.05,0.0,0.0,0.0,0.0,0.0,0.0,0.0,0.0,0.0,0.0,0.0,0.0
1494450142873697331,368,1494450142928167769,gyro_link,0.0,0.0,-0.019808191443,0.999803798528,1.79769313486e+308,0.0,0.0,0.0,1.79769313486e+308,0.0,0.0,0.0,0.05,0.0,0.0,-0.00314159265359,1.79769313486e+308,0.0,0.0,0.0,1.79769313486e+308,0.0,0.0,0.0,0.05,0.0,0.0,0.0,0.0,0.0,0.0,0.0,0.0,0.0,0.0,0.0,0.0
1494450142892626622,369,1494450142947665094,gyro_link,0.0,0.0,-0.0193719428673,0.999812346308,1.79769313486e+308,0.0,0.0,0.0,1.79769313486e+308,0.0,0.0,0.0,0.05,0.0,0.0,0.0591666616426,1.79769313486e+308,0.0,0.0,0.0,1.79769313486e+308,0.0,0.0,0.0,0.05,0.0,0.0,0.0,0.0,0.0,0.0,0.0,0.0,0.0,0.0,0.0,0.0
1494450142912115874,370,1494450142967484000,gyro_link,0.0,0.0,-0.0185866861927,0.999827252627,1.79769313486e+308,0.0,0.0,0.0,1.79769313486e+308,0.0,0.0,0.0,0.05,0.0,0.0,0.0898844564777,1.79769313486e+308,0.0,0.0,0.0,1.79769313486e+308,0.0,0.0,0.0,0.05,0.0,0.0,0.0,0.0,0.0,0.0,0.0,0.0,0.0,0.0,0.0,0.0
1494450142932929481,371,1494450142987465738,gyro_link,0.0,0.0,-0.0177141653507,0.999843091863,1.79769313486e+308,0.0,0.0,0.0,1.79769313486e+308,0.0,0.0,0.0,0.05,0.0,0.0,0.0780162175641,1.79769313486e+308,0.0,0.0,0.0,1.79769313486e+308,0.0,0.0,0.0,0.05,0.0,0.0,0.0,0.0,0.0,0.0,0.0,0.0,0.0,0.0,0.0,0.0
1494450142955365456,372,1494450143007445726,gyro_link,0.0,0.0,-0.0171033926951,0.999853726281,1.79769313486e+308,0.0,0.0,0.0,1.79769313486e+308,0.0,0.0,0.0,0.05,0.0,0.0,0.0616101225954,1.79769313486e+308,0.0,0.0,0.0,1.79769313486e+308,0.0,0.0,0.0,0.05,0.0,0.0,0.0,0.0,0.0,0.0,0.0,0.0,0.0,0.0,0.0,0.0
1494450142976894626,373,1494450143028616996,gyro_link,0.0,0.0,-0.016754376869,0.999859635577,1.79769313486e+308,0.0,0.0,0.0,1.79769313486e+308,0.0,0.0,0.0,0.05,0.0,0.0,0.0331612557879,1.79769313486e+308,0.0,0.0,0.0,1.79769313486e+308,0.0,0.0,0.0,0.05,0.0,0.0,0.0,0.0,0.0,0.0,0.0,0.0,0.0,0.0,0.0,0.0
1494450142992020349,374,1494450143047363536,gyro_link,0.0,0.0,-0.0166671225918,0.999861093865,1.79769313486e+308,0.0,0.0,0.0,1.79769313486e+308,0.0,0.0,0.0,0.05,0.0,0.0,0.00418879020479,1.79769313486e+308,0.0,0.0,0.0,1.79769313486e+308,0.0,0.0,0.0,0.05,0.0,0.0,0.0,0.0,0.0,0.0,0.0,0.0,0.0,0.0,0.0,0.0
1494450143013431400,375,1494450143067460148,gyro_link,0.0,0.0,-0.0168416310186,0.999858169674,1.79769313486e+308,0.0,0.0,0.0,1.79769313486e+308,0.0,0.0,0.0,0.05,0.0,0.0,-0.0219911485751,1.79769313486e+308,0.0,0.0,0.0,1.79769313486e+308,0.0,0.0,0.0,0.05,0.0,0.0,0.0,0.0,0.0,0.0,0.0,0.0,0.0,0.0,0.0,0.0
1494450143032717352,376,1494450143087425887,gyro_link,0.0,0.0,-0.0171033926951,0.999853726281,1.79769313486e+308,0.0,0.0,0.0,1.79769313486e+308,0.0,0.0,0.0,0.05,0.0,0.0,-0.0294960643587,1.79769313486e+308,0.0,0.0,0.0,1.79769313486e+308,0.0,0.0,0.0,0.05,0.0,0.0,0.0,0.0,0.0,0.0,0.0,0.0,0.0,0.0,0.0,0.0
1494450143058376829,377,1494450143107646706,gyro_link,0.0,0.0,-0.0172778998294,0.999850725947,1.79769313486e+308,0.0,0.0,0.0,1.79769313486e+308,0.0,0.0,0.0,0.05,0.0,0.0,-0.0165806278939,1.79769313486e+308,0.0,0.0,0.0,1.79769313486e+308,0.0,0.0,0.0,0.05,0.0,0.0,0.0,0.0,0.0,0.0,0.0,0.0,0.0,0.0,0.0,0.0
1494450143073655188,378,1494450143127395988,gyro_link,0.0,0.0,-0.0172778998294,0.999850725947,1.79769313486e+308,0.0,0.0,0.0,1.79769313486e+308,0.0,0.0,0.0,0.05,0.0,0.0,0.00750491578358,1.79769313486e+308,0.0,0.0,0.0,1.79769313486e+308,0.0,0.0,0.0,0.05,0.0,0.0,0.0,0.0,0.0,0.0,0.0,0.0,0.0,0.0,0.0,0.0
1494450143093629624,379,1494450143147519974,gyro_link,0.0,0.0,-0.0171033926951,0.999853726281,1.79769313486e+308,0.0,0.0,0.0,1.79769313486e+308,0.0,0.0,0.0,0.05,0.0,0.0,0.0200712863979,1.79769313486e+308,0.0,0.0,0.0,1.79769313486e+308,0.0,0.0,0.0,0.05,0.0,0.0,0.0,0.0,0.0,0.0,0.0,0.0,0.0,0.0,0.0,0.0
1494450143113659589,380,1494450143167541462,gyro_link,0.0,0.0,-0.016754376869,0.999859635577,1.79769313486e+308,0.0,0.0,0.0,1.79769313486e+308,0.0,0.0,0.0,0.05,0.0,0.0,0.0373500459927,1.79769313486e+308,0.0,0.0,0.0,1.79769313486e+308,0.0,0.0,0.0,0.05,0.0,0.0,0.0,0.0,0.0,0.0,0.0,0.0,0.0,0.0,0.0,0.0
1494450143134032810,381,1494450143187471326,gyro_link,0.0,0.0,-0.0164926136573,0.999863987598,1.79769313486e+308,0.0,0.0,0.0,1.79769313486e+308,0.0,0.0,0.0,0.05,0.0,0.0,0.0225147473507,1.79769313486e+308,0.0,0.0,0.0,1.79769313486e+308,0.0,0.0,0.0,0.05,0.0,0.0,0.0,0.0,0.0,0.0,0.0,0.0,0.0,0.0,0.0,0.0
1494450143159106722,382,1494450143207507855,gyro_link,0.0,0.0,-0.0164053590014,0.999865423043,1.79769313486e+308,0.0,0.0,0.0,1.79769313486e+308,0.0,0.0,0.0,0.05,0.0,0.0,0.0176278254451,1.79769313486e+308,0.0,0.0,0.0,1.79769313486e+308,0.0,0.0,0.0,0.05,0.0,0.0,0.0,0.0,0.0,0.0,0.0,0.0,0.0,0.0,0.0,0.0
1494450143174594981,383,1494450143227269928,gyro_link,0.0,0.0,-0.0162308493153,0.999868271089,1.79769313486e+308,0.0,0.0,0.0,1.79769313486e+308,0.0,0.0,0.0,0.05,0.0,0.0,0.0167551608191,1.79769313486e+308,0.0,0.0,0.0,1.79769313486e+308,0.0,0.0,0.0,0.05,0.0,0.0,0.0,0.0,0.0,0.0,0.0,0.0,0.0,0.0,0.0,0.0
1494450143194430585,384,1494450143248351698,gyro_link,0.0,0.0,-0.0161435942865,0.999869683691,1.79769313486e+308,0.0,0.0,0.0,1.79769313486e+308,0.0,0.0,0.0,0.05,0.0,0.0,-0.00401425727959,1.79769313486e+308,0.0,0.0,0.0,1.79769313486e+308,0.0,0.0,0.0,0.05,0.0,0.0,0.0,0.0,0.0,0.0,0.0,0.0,0.0,0.0,0.0,0.0
1494450143215165751,385,1494450143267706025,gyro_link,0.0,0.0,-0.0163181042205,0.999866850873,1.79769313486e+308,0.0,0.0,0.0,1.79769313486e+308,0.0,0.0,0.0,0.05,0.0,0.0,-0.0167551608191,1.79769313486e+308,0.0,0.0,0.0,1.79769313486e+308,0.0,0.0,0.0,0.05,0.0,0.0,0.0,0.0,0.0,0.0,0.0,0.0,0.0,0.0,0.0,0.0
1494450143232472389,386,1494450143287432349,gyro_link,0.0,0.0,-0.0163181042205,0.999866850873,1.79769313486e+308,0.0,0.0,0.0,1.79769313486e+308,0.0,0.0,0.0,0.05,0.0,0.0,0.0,1.79769313486e+308,0.0,0.0,0.0,1.79769313486e+308,0.0,0.0,0.0,0.05,0.0,0.0,0.0,0.0,0.0,0.0,0.0,0.0,0.0,0.0,0.0,0.0
1494450143254036781,387,1494450143307409295,gyro_link,0.0,0.0,-0.0162308493153,0.999868271089,1.79769313486e+308,0.0,0.0,0.0,1.79769313486e+308,0.0,0.0,0.0,0.05,0.0,0.0,0.0191986217719,1.79769313486e+308,0.0,0.0,0.0,1.79769313486e+308,0.0,0.0,0.0,0.05,0.0,0.0,0.0,0.0,0.0,0.0,0.0,0.0,0.0,0.0,0.0,0.0
1494450143272684636,388,1494450143327394158,gyro_link,0.0,0.0,-0.0160563391348,0.999871088678,1.79769313486e+308,0.0,0.0,0.0,1.79769313486e+308,0.0,0.0,0.0,0.05,0.0,0.0,0.012217304764,1.79769313486e+308,0.0,0.0,0.0,1.79769313486e+308,0.0,0.0,0.0,0.05,0.0,0.0,0.0,0.0,0.0,0.0,0.0,0.0,0.0,0.0,0.0,0.0
1494450143296080814,389,1494450143348201556,gyro_link,0.0,0.0,-0.0160563391348,0.999871088678,1.79769313486e+308,0.0,0.0,0.0,1.79769313486e+308,0.0,0.0,0.0,0.05,0.0,0.0,-0.00890117918517,1.79769313486e+308,0.0,0.0,0.0,1.79769313486e+308,0.0,0.0,0.0,0.05,0.0,0.0,0.0,0.0,0.0,0.0,0.0,0.0,0.0,0.0,0.0,0.0
1494450143314167929,390,1494450143368089961,gyro_link,0.0,0.0,-0.0162308493153,0.999868271089,1.79769313486e+308,0.0,0.0,0.0,1.79769313486e+308,0.0,0.0,0.0,0.05,0.0,0.0,-0.01308996939,1.79769313486e+308,0.0,0.0,0.0,1.79769313486e+308,0.0,0.0,0.0,0.05,0.0,0.0,0.0,0.0,0.0,0.0,0.0,0.0,0.0,0.0,0.0,0.0
1494450143338326887,391,1494450143388378030,gyro_link,0.0,0.0,-0.0163181042205,0.999866850873,1.79769313486e+308,0.0,0.0,0.0,1.79769313486e+308,0.0,0.0,0.0,0.05,0.0,0.0,-0.00733038285838,1.79769313486e+308,0.0,0.0,0.0,1.79769313486e+308,0.0,0.0,0.0,0.05,0.0,0.0,0.0,0.0,0.0,0.0,0.0,0.0,0.0,0.0,0.0,0.0
1494450143356321323,392,1494450143407338110,gyro_link,0.0,0.0,-0.0163181042205,0.999866850873,1.79769313486e+308,0.0,0.0,0.0,1.79769313486e+308,0.0,0.0,0.0,0.05,0.0,0.0,-0.00383972435439,1.79769313486e+308,0.0,0.0,0.0,1.79769313486e+308,0.0,0.0,0.0,0.05,0.0,0.0,0.0,0.0,0.0,0.0,0.0,0.0,0.0,0.0,0.0,0.0
1494450143372771018,393,1494450143427345640,gyro_link,0.0,0.0,-0.0164053590014,0.999865423043,1.79769313486e+308,0.0,0.0,0.0,1.79769313486e+308,0.0,0.0,0.0,0.05,0.0,0.0,-0.0141371669412,1.79769313486e+308,0.0,0.0,0.0,1.79769313486e+308,0.0,0.0,0.0,0.05,0.0,0.0,0.0,0.0,0.0,0.0,0.0,0.0,0.0,0.0,0.0,0.0
